// Data mode  : Full
// Data quality  : High
// Acceleration sensor's range  : 2g
// Gyroscope sensor's range  : 250dps
//
//ARTIFACT,NUM,DATE,ACC_X,ACC_Y,ACC_Z,GYRO_X,GYRO_Y,GYRO_Z,EOG_L,EOG_R,EOG_H,EOG_V
,3000,2015/08/20 07:43:31.00,-920,2664,-16320,-30,-18,-338,206,254,-48,-230
,3001,2015/08/20 07:43:31.01,-656,2640,-16296,-32,-103,-447,219,255,-36,-237
,3002,2015/08/20 07:43:31.02,-792,2584,-16112,33,-209,-629,203,253,-50,-228
,3003,2015/08/20 07:43:31.03,-688,2568,-16104,92,-294,-881,210,246,-36,-228
,3004,2015/08/20 07:43:31.04,-1056,2480,-16016,144,-297,-1075,190,237,-47,-213
,3005,2015/08/20 07:43:31.05,-1264,2360,-15960,165,-198,-1068,201,232,-31,-216
,3006,2015/08/20 07:43:31.06,-1232,1840,-15792,298,-24,-892,190,232,-42,-211
,3007,2015/08/20 07:43:31.07,-1016,2168,-16208,665,-6,-636,201,228,-27,-214
,3008,2015/08/20 07:43:31.08,-984,2096,-16120,629,78,-427,184,224,-40,-204
,3009,2015/08/20 07:43:31.09,-912,2240,-16248,731,153,-304,197,224,-27,-210
,3010,2015/08/20 07:43:31.10,-1152,2744,-16408,836,12,-233,183,223,-40,-203
,3011,2015/08/20 07:43:31.11,-1096,2400,-16072,329,60,-188,199,226,-27,-212
,3012,2015/08/20 07:43:31.12,-1232,2544,-16048,253,63,-57,191,231,-40,-211
,3013,2015/08/20 07:43:31.13,-1136,2384,-16072,179,36,-42,199,227,-28,-213
,3014,2015/08/20 07:43:31.14,-976,2504,-16184,214,66,-56,181,220,-39,-200
,3015,2015/08/20 07:43:31.15,-1264,2528,-16168,279,16,-51,192,217,-25,-204
,3016,2015/08/20 07:43:31.16,-952,2520,-16192,248,44,-67,177,218,-41,-197
,3017,2015/08/20 07:43:31.17,-1168,2328,-16224,218,85,-32,200,232,-32,-216
,3018,2015/08/20 07:43:31.18,-1304,2448,-16112,343,33,-46,181,224,-43,-202
,3019,2015/08/20 07:43:31.19,-1016,2776,-16192,273,20,-87,197,224,-27,-210
,3020,2015/08/20 07:43:31.20,-1104,2528,-16264,-33,55,-51,179,211,-32,-195
,3021,2015/08/20 07:43:31.21,-1080,2744,-16472,-90,-6,-40,198,210,-12,-204
,3022,2015/08/20 07:43:31.22,-1144,2656,-16304,-194,-114,-86,185,203,-18,-194
,3023,2015/08/20 07:43:31.23,-1112,2432,-16056,-73,-134,-228,207,210,-3,-208
,3024,2015/08/20 07:43:31.24,-1176,2264,-16248,-149,-60,-196,192,209,-17,-200
,3025,2015/08/20 07:43:31.25,-1072,2208,-16160,-274,-17,-43,204,206,-2,-205
,3026,2015/08/20 07:43:31.26,-944,1864,-16232,-282,21,131,162,178,-16,-170
,3027,2015/08/20 07:43:31.27,-1104,1912,-16488,-126,58,294,171,174,-3,-172
,3028,2015/08/20 07:43:31.28,-1224,2448,-16600,181,0,322,151,179,-28,-165
,3029,2015/08/20 07:43:31.29,-1496,2640,-16608,416,-155,200,172,180,-8,-176
,3030,2015/08/20 07:43:31.30,-1128,2656,-16264,491,-204,4,158,177,-19,-167
,3031,2015/08/20 07:43:31.31,-1200,2464,-16152,315,-38,-134,174,188,-14,-181
,3032,2015/08/20 07:43:31.32,-816,2376,-15936,226,204,-134,164,202,-38,-183
,3033,2015/08/20 07:43:31.33,-1256,2104,-16120,129,333,71,177,210,-33,-193
,3034,2015/08/20 07:43:31.34,-1424,2152,-16352,-26,505,154,164,213,-49,-188
,3035,2015/08/20 07:43:31.35,-1272,2344,-16080,-62,419,335,182,214,-32,-198
,3036,2015/08/20 07:43:31.36,-1200,2368,-15968,-228,450,452,173,221,-48,-197
,3037,2015/08/20 07:43:31.37,-1232,2416,-16200,-210,421,614,183,222,-39,-202
,3038,2015/08/20 07:43:31.38,-1160,2120,-15856,-315,426,708,159,216,-57,-187
,3039,2015/08/20 07:43:31.39,-928,2520,-16184,63,316,663,171,221,-50,-196
,3040,2015/08/20 07:43:31.40,-584,2552,-15792,165,242,355,169,231,-62,-200
,3041,2015/08/20 07:43:31.41,-1096,2064,-16336,-269,500,213,195,237,-42,-216
,3042,2015/08/20 07:43:31.42,-1024,2168,-16064,-459,462,342,200,263,-63,-231
,3043,2015/08/20 07:43:31.43,-1184,2344,-16312,-319,377,453,190,258,-68,-224
,3044,2015/08/20 07:43:31.44,-872,2480,-16000,-301,262,522,182,264,-82,-223
,3045,2015/08/20 07:43:31.45,-944,2624,-15904,-254,236,520,218,280,-62,-249
,3046,2015/08/20 07:43:31.46,-992,2768,-16032,-235,257,426,215,278,-63,-246
,3047,2015/08/20 07:43:31.47,-840,2784,-16072,-179,304,265,227,271,-44,-249
,3048,2015/08/20 07:43:31.48,-792,2768,-16264,-171,308,159,202,262,-60,-232
,3049,2015/08/20 07:43:31.49,-1104,2832,-16288,-119,231,38,202,256,-54,-229
,3050,2015/08/20 07:43:31.50,-840,2880,-16368,-130,126,-93,188,253,-65,-220
,3051,2015/08/20 07:43:31.51,-688,2712,-16272,-137,54,-239,199,252,-53,-225
,3052,2015/08/20 07:43:31.52,-760,2712,-16336,-94,-17,-370,186,252,-66,-219
,3053,2015/08/20 07:43:31.53,-776,2720,-16344,-43,-97,-484,198,253,-55,-225
,3054,2015/08/20 07:43:31.54,-680,2656,-16216,29,-172,-644,186,250,-64,-218
,3055,2015/08/20 07:43:31.55,-568,2488,-16288,184,-296,-860,199,246,-47,-222
,3056,2015/08/20 07:43:31.56,-584,2456,-15960,323,-439,-1200,186,244,-58,-215
,3057,2015/08/20 07:43:31.57,-1152,2656,-16272,417,-389,-1334,198,245,-47,-221
,3058,2015/08/20 07:43:31.58,-864,2376,-16208,460,-354,-1278,196,258,-62,-227
,3059,2015/08/20 07:43:31.59,-1280,2392,-16336,362,-215,-1019,196,246,-50,-221
,3060,2015/08/20 07:43:31.60,-1224,2736,-16160,627,-342,-995,190,243,-53,-216
,3061,2015/08/20 07:43:31.61,-1104,936,-15344,356,-80,-647,192,227,-35,-209
,3062,2015/08/20 07:43:31.62,-1304,1952,-16440,622,341,-167,190,238,-48,-214
,3063,2015/08/20 07:43:31.63,-760,2424,-16304,842,92,108,198,236,-38,-217
,3064,2015/08/20 07:43:31.64,-816,2568,-16216,808,72,266,189,236,-47,-212
,3065,2015/08/20 07:43:31.65,-1320,2328,-16360,571,27,312,194,229,-35,-211
,3066,2015/08/20 07:43:31.66,-1016,2504,-16232,440,-39,369,176,219,-43,-197
,3067,2015/08/20 07:43:31.67,-1112,2656,-16352,389,-127,402,170,206,-36,-188
,3068,2015/08/20 07:43:31.68,-1200,2616,-16040,184,-211,349,170,206,-36,-188
,3069,2015/08/20 07:43:31.69,-984,2760,-15976,-56,-235,234,180,204,-24,-192
,3070,2015/08/20 07:43:31.70,-1168,2464,-16120,-136,-226,123,177,216,-39,-196
,3071,2015/08/20 07:43:31.71,-1112,2680,-16104,-141,-208,-11,192,224,-32,-208
,3072,2015/08/20 07:43:31.72,-984,2648,-16224,-169,-231,-93,183,222,-39,-202
,3073,2015/08/20 07:43:31.73,-1272,2248,-16088,-143,-249,-182,188,219,-31,-203
,3074,2015/08/20 07:43:31.74,-1016,2168,-16184,-90,-240,-197,176,211,-35,-193
,3075,2015/08/20 07:43:31.75,-1152,2376,-16304,-80,-270,-70,180,211,-31,-195
,3076,2015/08/20 07:43:31.76,-1328,2232,-16600,-198,-262,89,175,217,-42,-196
,3077,2015/08/20 07:43:31.77,-1392,2800,-16664,-125,-304,166,182,220,-38,-201
,3078,2015/08/20 07:43:31.78,-1312,2808,-16504,-21,-445,87,174,216,-42,-195
,3079,2015/08/20 07:43:31.79,-1128,2768,-16560,52,-416,2,181,217,-36,-199
,3080,2015/08/20 07:43:31.80,-1840,2720,-16152,307,-419,-316,174,216,-42,-195
,3081,2015/08/20 07:43:31.81,-1312,2512,-15992,395,-234,-398,186,219,-33,-202
,3082,2015/08/20 07:43:31.82,-1360,2520,-15952,337,27,-485,182,224,-42,-203
,3083,2015/08/20 07:43:31.83,-1000,2128,-15696,279,185,-332,190,226,-36,-208
,3084,2015/08/20 07:43:31.84,-1328,2192,-15984,259,441,-178,184,221,-37,-202
,3085,2015/08/20 07:43:31.85,-1328,2032,-16024,112,437,72,188,215,-27,-201
,3086,2015/08/20 07:43:31.86,-1144,2088,-16088,38,459,332,176,208,-32,-192
,3087,2015/08/20 07:43:31.87,-1184,1944,-16136,-59,404,597,180,207,-27,-193
,3088,2015/08/20 07:43:31.88,-984,2248,-15888,-40,352,769,185,220,-35,-202
,3089,2015/08/20 07:43:31.89,-1184,2520,-16240,131,345,816,178,211,-33,-194
,3090,2015/08/20 07:43:31.90,-960,2592,-15824,86,303,669,162,200,-38,-181
,3091,2015/08/20 07:43:31.91,-1160,2656,-15968,67,365,660,170,204,-34,-187
,3092,2015/08/20 07:43:31.92,-752,2384,-15808,-133,361,523,176,228,-52,-202
,3093,2015/08/20 07:43:31.93,-1008,2400,-16288,-200,415,596,184,228,-44,-206
,3094,2015/08/20 07:43:31.94,-864,2376,-16384,-268,376,530,178,221,-43,-199
,3095,2015/08/20 07:43:31.95,-872,2376,-16200,-291,284,510,179,226,-47,-202
,3096,2015/08/20 07:43:31.96,-1024,2456,-16288,-203,197,501,180,240,-60,-210
,3097,2015/08/20 07:43:31.97,-856,2792,-16152,-140,122,432,203,260,-57,-231
,3098,2015/08/20 07:43:31.98,-1024,2664,-16176,-130,91,289,218,274,-56,-246
,3099,2015/08/20 07:43:31.99,-912,2728,-16360,-65,53,138,224,274,-50,-249
,3100,2015/08/20 07:43:32.00,-1040,2616,-16168,-39,75,30,200,251,-51,-225
,3101,2015/08/20 07:43:32.01,-904,2664,-16304,-7,77,-86,195,243,-48,-219
,3102,2015/08/20 07:43:32.02,-1120,2624,-16224,54,53,-189,183,228,-45,-205
,3103,2015/08/20 07:43:32.03,-1064,2600,-16152,76,39,-297,185,237,-52,-211
,3104,2015/08/20 07:43:32.04,-1000,2344,-16064,77,72,-419,183,235,-52,-209
,3105,2015/08/20 07:43:32.05,-1000,2536,-16104,113,81,-498,186,235,-49,-210
,3106,2015/08/20 07:43:32.06,-992,2520,-16264,139,45,-557,181,230,-49,-205
,3107,2015/08/20 07:43:32.07,-1040,2296,-16136,169,15,-599,179,227,-48,-203
,3108,2015/08/20 07:43:32.08,-648,2496,-16032,194,-13,-636,167,214,-47,-190
,3109,2015/08/20 07:43:32.09,-792,2240,-16224,206,-121,-755,175,219,-44,-197
,3110,2015/08/20 07:43:32.10,-904,2368,-15944,262,-177,-962,175,220,-45,-197
,3111,2015/08/20 07:43:32.11,-1000,2576,-16112,252,-150,-1073,175,218,-43,-196
,3112,2015/08/20 07:43:32.12,-1344,2392,-15920,343,-189,-1202,171,218,-47,-194
,3113,2015/08/20 07:43:32.13,-1136,2392,-16392,113,83,-893,172,217,-45,-194
,3114,2015/08/20 07:43:32.14,-1136,2008,-16160,57,69,-639,174,216,-42,-195
,3115,2015/08/20 07:43:32.15,-1400,1728,-15592,73,176,-419,174,213,-39,-193
,3116,2015/08/20 07:43:32.16,-872,2208,-16400,532,92,-167,174,211,-37,-192
,3117,2015/08/20 07:43:32.17,-1024,2576,-16424,390,78,-92,170,212,-42,-191
,3118,2015/08/20 07:43:32.18,-976,2528,-16288,202,28,6,173,218,-45,-195
,3119,2015/08/20 07:43:32.19,-1176,2376,-16104,25,24,33,171,218,-47,-194
,3120,2015/08/20 07:43:32.20,-1344,2608,-16208,51,-18,6,176,216,-40,-196
,3121,2015/08/20 07:43:32.21,-1232,2320,-16184,57,12,8,176,217,-41,-196
,3122,2015/08/20 07:43:32.22,-1280,2384,-16384,109,71,37,183,222,-39,-202
,3123,2015/08/20 07:43:32.23,-1264,2568,-16200,157,59,49,179,222,-43,-200
,3124,2015/08/20 07:43:32.24,-1168,2760,-16408,189,56,84,180,220,-40,-200
,3125,2015/08/20 07:43:32.25,-1096,2744,-16288,70,13,60,176,217,-41,-196
,3126,2015/08/20 07:43:32.26,-1288,2776,-16320,-23,-54,-7,178,217,-39,-197
,3127,2015/08/20 07:43:32.27,-1264,2664,-16072,-41,-63,-96,175,219,-44,-197
,3128,2015/08/20 07:43:32.28,-1000,2752,-16136,-21,-35,-189,178,220,-42,-199
,3129,2015/08/20 07:43:32.29,-984,2784,-16312,-4,-47,-229,176,223,-47,-199
,3130,2015/08/20 07:43:32.30,-1320,2536,-16216,65,-29,-277,181,223,-42,-202
,3131,2015/08/20 07:43:32.31,-1432,2344,-16024,24,-43,-268,176,225,-49,-200
,3132,2015/08/20 07:43:32.32,-1040,2288,-16328,75,-64,-203,175,224,-49,-199
,3133,2015/08/20 07:43:32.33,-1120,2128,-16176,103,-60,-60,165,216,-51,-190
,3134,2015/08/20 07:43:32.34,-1168,2112,-16288,67,-55,139,171,212,-41,-191
,3135,2015/08/20 07:43:32.35,-960,2360,-16496,258,-117,212,172,214,-42,-193
,3136,2015/08/20 07:43:32.36,-1360,2608,-16632,513,-270,122,180,222,-42,-201
,3137,2015/08/20 07:43:32.37,-1032,2744,-16376,667,-312,-79,172,223,-51,-197
,3138,2015/08/20 07:43:32.38,-1256,2616,-16024,563,-207,-217,174,221,-47,-197
,3139,2015/08/20 07:43:32.39,-1192,2512,-16048,395,-4,-235,168,215,-47,-191
,3140,2015/08/20 07:43:32.40,-1128,2248,-16056,289,98,-214,182,220,-38,-201
,3141,2015/08/20 07:43:32.41,-1168,2144,-16208,201,180,-136,149,193,-44,-171
,3142,2015/08/20 07:43:32.42,-1320,2176,-16056,110,207,-32,109,147,-38,-128
,3143,2015/08/20 07:43:32.43,-984,2056,-15944,122,189,63,23,65,-42,-44
,3144,2015/08/20 07:43:32.44,-1160,2064,-15960,114,264,232,-51,-3,-48,27
,3145,2015/08/20 07:43:32.45,-1144,2040,-16184,66,271,343,-110,-54,-56,82
,3146,2015/08/20 07:43:32.46,-1160,2328,-15928,194,251,386,-114,-66,-48,90
,3147,2015/08/20 07:43:32.47,-1240,2232,-16248,220,224,443,-95,-47,-48,71
,3148,2015/08/20 07:43:32.48,-1112,2512,-16168,207,206,376,-38,2,-40,18
,3149,2015/08/20 07:43:32.49,-1072,2496,-16232,89,229,326,10,54,-44,-32
,3150,2015/08/20 07:43:32.50,-1096,2264,-16208,-63,294,336,86,124,-38,-105
,3151,2015/08/20 07:43:32.51,-1240,2488,-16352,-227,348,287,122,168,-46,-145
,3152,2015/08/20 07:43:32.52,-888,2448,-16360,-304,272,249,162,200,-38,-181
,3153,2015/08/20 07:43:32.53,-1032,2304,-16384,-265,249,183,172,221,-49,-196
,3154,2015/08/20 07:43:32.54,-1096,2736,-16384,-280,214,125,192,230,-38,-211
,3155,2015/08/20 07:43:32.55,-1032,2424,-16384,-293,245,126,201,246,-45,-223
,3156,2015/08/20 07:43:32.56,-952,2504,-16256,-300,196,132,219,252,-33,-235
,3157,2015/08/20 07:43:32.57,-1000,2280,-16240,-197,171,76,211,253,-42,-232
,3158,2015/08/20 07:43:32.58,-856,2616,-16264,-81,176,17,219,250,-31,-234
,3159,2015/08/20 07:43:32.59,-784,2472,-16296,37,109,-62,209,244,-35,-226
,3160,2015/08/20 07:43:32.60,-776,2424,-16200,-118,192,-74,226,258,-32,-242
,3161,2015/08/20 07:43:32.61,-1104,2112,-15848,-286,330,-66,218,265,-47,-241
,3162,2015/08/20 07:43:32.62,-1176,1896,-16192,-286,387,152,230,274,-44,-252
,3163,2015/08/20 07:43:32.63,-704,2056,-16032,-240,389,310,222,275,-53,-248
,3164,2015/08/20 07:43:32.64,-1128,2232,-15960,-58,305,486,233,280,-47,-256
,3165,2015/08/20 07:43:32.65,-808,2352,-16256,73,291,574,242,288,-46,-265
,3166,2015/08/20 07:43:32.66,-944,2496,-16032,161,211,576,260,282,-22,-271
,3167,2015/08/20 07:43:32.67,-872,2448,-15992,158,214,486,237,269,-32,-253
,3168,2015/08/20 07:43:32.68,-840,2656,-16104,139,231,387,238,263,-25,-250
,3169,2015/08/20 07:43:32.69,-832,2800,-16312,111,208,272,220,259,-39,-239
,3170,2015/08/20 07:43:32.70,-704,2824,-16296,70,155,164,225,255,-30,-240
,3171,2015/08/20 07:43:32.71,-832,2720,-16216,39,94,10,207,251,-44,-229
,3172,2015/08/20 07:43:32.72,-952,2640,-16304,-10,-70,-271,216,247,-31,-231
,3173,2015/08/20 07:43:32.73,-824,2504,-16344,2,-144,-402,206,248,-42,-227
,3174,2015/08/20 07:43:32.74,-760,2608,-16096,35,-248,-559,215,244,-29,-229
,3175,2015/08/20 07:43:32.75,-576,2512,-16200,82,-356,-791,200,239,-39,-219
,3176,2015/08/20 07:43:32.76,-1080,2616,-16104,115,-393,-1029,207,234,-27,-220
,3177,2015/08/20 07:43:32.77,-1136,2520,-16120,147,-318,-1075,191,230,-39,-210
,3178,2015/08/20 07:43:32.78,-1024,2512,-16152,116,-159,-968,202,231,-29,-216
,3179,2015/08/20 07:43:32.79,-1176,2488,-16240,198,-165,-840,191,229,-38,-210
,3180,2015/08/20 07:43:32.80,-1160,2008,-15304,375,-99,-821,199,224,-25,-211
,3181,2015/08/20 07:43:32.81,-1648,1944,-16520,685,152,-518,194,231,-37,-212
,3182,2015/08/20 07:43:32.82,-1056,2232,-16152,522,141,-329,199,224,-25,-211
,3183,2015/08/20 07:43:32.83,-1128,2608,-16400,510,64,-78,193,228,-35,-210
,3184,2015/08/20 07:43:32.84,-1256,2392,-16376,191,73,24,198,219,-21,-208
,3185,2015/08/20 07:43:32.85,-976,2496,-16200,221,-14,83,191,229,-38,-210
,3186,2015/08/20 07:43:32.86,-1224,2240,-16136,360,-34,116,196,225,-29,-210
,3187,2015/08/20 07:43:32.87,-1160,2408,-15984,466,-29,78,183,223,-40,-203
,3188,2015/08/20 07:43:32.88,-992,2552,-15976,598,-6,45,191,220,-29,-205
,3189,2015/08/20 07:43:32.89,-1184,2520,-16232,691,27,22,178,222,-44,-200
,3190,2015/08/20 07:43:32.90,-1144,2504,-16216,693,-22,-10,181,213,-32,-197
,3191,2015/08/20 07:43:32.91,-1264,2576,-16344,601,-61,-40,184,224,-40,-204
,3192,2015/08/20 07:43:32.92,-944,2288,-16120,404,-48,-78,210,232,-22,-221
,3193,2015/08/20 07:43:32.93,-1512,2464,-16184,349,-20,-79,201,232,-31,-216
,3194,2015/08/20 07:43:32.94,-1144,2432,-16304,278,-37,-102,208,226,-18,-217
,3195,2015/08/20 07:43:32.95,-1288,2432,-16392,176,-37,-89,198,225,-27,-211
,3196,2015/08/20 07:43:32.96,-1072,2312,-16112,134,-35,-49,210,228,-18,-219
,3197,2015/08/20 07:43:32.97,-1152,2432,-16152,84,-37,-14,194,224,-30,-209
,3198,2015/08/20 07:43:32.98,-816,2112,-16160,113,-18,13,203,216,-13,-209
,3199,2015/08/20 07:43:32.99,-1328,2104,-16200,94,12,51,194,214,-20,-204
,3200,2015/08/20 07:43:33.00,-1176,1992,-16240,5,24,221,210,212,-2,-211
,3201,2015/08/20 07:43:33.01,-1312,2264,-16464,-88,24,411,193,207,-14,-200
,3202,2015/08/20 07:43:33.02,-1144,2368,-16704,-86,11,453,204,210,-6,-207
,3203,2015/08/20 07:43:33.03,-1312,2608,-16576,-16,-59,370,187,212,-25,-199
,3204,2015/08/20 07:43:33.04,-1520,2672,-16528,59,-92,221,198,213,-15,-205
,3205,2015/08/20 07:43:33.05,-1184,2832,-16312,204,-89,-55,178,211,-33,-194
,3206,2015/08/20 07:43:33.06,-1256,2576,-16192,228,-39,-370,188,210,-22,-199
,3207,2015/08/20 07:43:33.07,-1192,2280,-15912,131,223,-445,178,209,-31,-193
,3208,2015/08/20 07:43:33.08,-936,2016,-15864,136,378,-285,194,205,-11,-199
,3209,2015/08/20 07:43:33.09,-1024,2032,-16264,16,543,-121,178,205,-27,-191
,3210,2015/08/20 07:43:33.10,-1256,2280,-16200,-27,469,66,192,207,-15,-199
,3211,2015/08/20 07:43:33.11,-1256,2064,-16200,-142,435,274,180,208,-28,-194
,3212,2015/08/20 07:43:33.12,-1064,2352,-16272,-228,393,466,192,205,-13,-198
,3213,2015/08/20 07:43:33.13,-1168,2240,-15992,-392,415,633,173,202,-29,-187
,3214,2015/08/20 07:43:33.14,-1112,2200,-15976,-213,293,752,180,200,-20,-190
,3215,2015/08/20 07:43:33.15,-832,2344,-16224,40,219,695,164,198,-34,-181
,3216,2015/08/20 07:43:33.16,-440,2856,-15832,361,61,285,182,208,-26,-195
,3217,2015/08/20 07:43:33.17,-368,2392,-16128,-140,314,178,175,213,-38,-194
,3218,2015/08/20 07:43:33.18,-1168,2008,-16472,-264,383,253,161,189,-28,-175
,3219,2015/08/20 07:43:33.19,-864,2184,-16264,-214,165,363,165,210,-45,-187
,3220,2015/08/20 07:43:33.20,-864,2480,-16400,-186,140,354,209,241,-32,-225
,3221,2015/08/20 07:43:33.21,-1064,2400,-16448,-232,93,326,201,236,-35,-218
,3222,2015/08/20 07:43:33.22,-592,2384,-16200,-137,90,274,216,235,-19,-225
,3223,2015/08/20 07:43:33.23,-1256,2496,-16096,-95,88,179,182,217,-35,-199
,3224,2015/08/20 07:43:33.24,-840,2536,-16088,-53,113,96,189,217,-28,-203
,3225,2015/08/20 07:43:33.25,-1056,2432,-16208,21,56,7,169,208,-39,-188
,3226,2015/08/20 07:43:33.26,-920,2552,-16120,61,36,-113,191,224,-33,-207
,3227,2015/08/20 07:43:33.27,-808,2544,-16136,80,16,-224,180,223,-43,-201
,3228,2015/08/20 07:43:33.28,-912,2456,-16096,90,12,-300,193,224,-31,-208
,3229,2015/08/20 07:43:33.29,-792,2408,-16120,122,0,-424,173,216,-43,-194
,3230,2015/08/20 07:43:33.30,-608,2448,-16224,128,-32,-604,181,211,-30,-196
,3231,2015/08/20 07:43:33.31,-984,2360,-16152,147,-81,-835,155,199,-44,-177
,3232,2015/08/20 07:43:33.32,-1096,2616,-16080,198,-77,-1027,173,203,-30,-188
,3233,2015/08/20 07:43:33.33,-1192,2608,-16240,172,-21,-1040,159,201,-42,-180
,3234,2015/08/20 07:43:33.34,-1160,2248,-16208,155,25,-943,170,199,-29,-184
,3235,2015/08/20 07:43:33.35,-1056,2352,-16272,144,68,-788,152,196,-44,-174
,3236,2015/08/20 07:43:33.36,-704,2576,-15936,153,25,-682,160,192,-32,-176
,3237,2015/08/20 07:43:33.37,-1096,1632,-16296,353,154,-533,148,192,-44,-170
,3238,2015/08/20 07:43:33.38,-944,2136,-16328,350,204,-397,164,195,-31,-179
,3239,2015/08/20 07:43:33.39,-1264,2424,-16624,607,116,-240,153,197,-44,-175
,3240,2015/08/20 07:43:33.40,-944,2304,-16432,192,71,-197,162,195,-33,-178
,3241,2015/08/20 07:43:33.41,-1208,2264,-16256,-11,104,-75,144,193,-49,-168
,3242,2015/08/20 07:43:33.42,-1136,2288,-16160,-20,2,-41,157,194,-37,-175
,3243,2015/08/20 07:43:33.43,-1104,2392,-16224,34,7,-13,150,200,-50,-175
,3244,2015/08/20 07:43:33.44,-1032,2216,-16160,132,2,-2,163,200,-37,-181
,3245,2015/08/20 07:43:33.45,-1112,2192,-16248,191,64,43,150,200,-50,-175
,3246,2015/08/20 07:43:33.46,-1240,2520,-16472,216,51,97,161,198,-37,-179
,3247,2015/08/20 07:43:33.47,-1160,2672,-16192,169,-42,98,154,198,-44,-176
,3248,2015/08/20 07:43:33.48,-1120,2608,-16216,124,-79,94,162,194,-32,-178
,3249,2015/08/20 07:43:33.49,-1176,2640,-16320,103,-120,12,155,197,-42,-176
,3250,2015/08/20 07:43:33.50,-984,2424,-16120,66,-113,-63,166,200,-34,-183
,3251,2015/08/20 07:43:33.51,-1312,2400,-16176,59,-84,-95,156,202,-46,-179
,3252,2015/08/20 07:43:33.52,-944,2416,-16192,130,-44,-129,168,202,-34,-185
,3253,2015/08/20 07:43:33.53,-1008,2392,-16248,191,-23,-121,163,208,-45,-185
,3254,2015/08/20 07:43:33.54,-1160,2304,-16256,210,-6,-107,176,212,-36,-194
,3255,2015/08/20 07:43:33.55,-1024,2320,-16240,264,-19,-85,156,204,-48,-180
,3256,2015/08/20 07:43:33.56,-1184,2272,-16216,321,-18,-50,148,193,-45,-170
,3257,2015/08/20 07:43:33.57,-1104,2384,-16560,307,-6,-11,128,185,-57,-156
,3258,2015/08/20 07:43:33.58,-1032,2200,-16192,286,26,-16,107,158,-51,-132
,3259,2015/08/20 07:43:33.59,-1272,2040,-15992,216,67,21,36,110,-74,-73
,3260,2015/08/20 07:43:33.60,-1384,1968,-16400,163,169,199,-36,47,-83,-5
,3261,2015/08/20 07:43:33.61,-1136,2112,-16320,203,109,296,-121,-16,-105,68
,3262,2015/08/20 07:43:33.62,-1224,2216,-16248,246,49,353,-163,-57,-106,110
,3263,2015/08/20 07:43:33.63,-1136,2384,-16136,274,-28,335,-164,-52,-112,108
,3264,2015/08/20 07:43:33.64,-896,2512,-16128,290,-57,242,-124,-26,-98,75
,3265,2015/08/20 07:43:33.65,-1080,2616,-16088,294,-29,125,-71,28,-99,21
,3266,2015/08/20 07:43:33.66,-1248,2688,-16248,296,-21,-33,-12,67,-79,-27
,3267,2015/08/20 07:43:33.67,-1512,2416,-15984,243,5,-195,32,119,-87,-75
,3268,2015/08/20 07:43:33.68,-1048,2496,-16120,151,36,-294,75,152,-77,-113
,3269,2015/08/20 07:43:33.69,-1192,2184,-16040,17,118,-335,103,184,-81,-143
,3270,2015/08/20 07:43:33.70,-976,1896,-16152,-111,206,-232,133,203,-70,-168
,3271,2015/08/20 07:43:33.71,-1016,1984,-16128,-84,234,-108,149,222,-73,-185
,3272,2015/08/20 07:43:33.72,-1184,2000,-16216,-64,230,28,167,233,-66,-200
,3273,2015/08/20 07:43:33.73,-904,1984,-16208,-48,277,169,185,252,-67,-218
,3274,2015/08/20 07:43:33.74,-1064,1952,-16208,-28,278,298,201,256,-55,-228
,3275,2015/08/20 07:43:33.75,-1120,2224,-16336,-14,296,382,203,258,-55,-230
,3276,2015/08/20 07:43:33.76,-1016,2192,-16320,-6,314,439,216,266,-50,-241
,3277,2015/08/20 07:43:33.77,-976,2400,-16232,63,287,434,214,269,-55,-241
,3278,2015/08/20 07:43:33.78,-1064,2312,-16328,29,306,385,224,271,-47,-247
,3279,2015/08/20 07:43:33.79,-1176,2296,-16328,-10,377,371,220,271,-51,-245
,3280,2015/08/20 07:43:33.80,-952,2328,-16184,30,345,343,225,270,-45,-247
,3281,2015/08/20 07:43:33.81,-1192,2288,-16256,40,292,262,219,265,-46,-242
,3282,2015/08/20 07:43:33.82,-936,2384,-16352,28,291,217,224,263,-39,-243
,3283,2015/08/20 07:43:33.83,-832,2544,-16024,41,255,153,221,264,-43,-242
,3284,2015/08/20 07:43:33.84,-872,2504,-16200,-13,257,95,223,261,-38,-242
,3285,2015/08/20 07:43:33.85,-984,2288,-16272,-83,233,77,214,256,-42,-235
,3286,2015/08/20 07:43:33.86,-936,2320,-16240,-68,190,40,217,251,-34,-234
,3287,2015/08/20 07:43:33.87,-1040,2312,-16184,-42,118,61,210,249,-39,-229
,3288,2015/08/20 07:43:33.88,-904,2328,-16240,-15,63,3,212,245,-33,-228
,3289,2015/08/20 07:43:33.89,-936,2448,-16096,35,31,-13,201,241,-40,-221
,3290,2015/08/20 07:43:33.90,-896,2432,-16120,24,16,4,198,235,-37,-216
,3291,2015/08/20 07:43:33.91,-984,2216,-16320,-21,31,58,192,229,-37,-210
,3292,2015/08/20 07:43:33.92,-776,2264,-16200,-43,15,90,195,225,-30,-210
,3293,2015/08/20 07:43:33.93,-872,2328,-16192,7,-19,50,192,224,-32,-208
,3294,2015/08/20 07:43:33.94,-768,2248,-16296,59,-54,17,194,224,-30,-209
,3295,2015/08/20 07:43:33.95,-976,2280,-16272,43,-59,-11,190,225,-35,-207
,3296,2015/08/20 07:43:33.96,-1160,2352,-16176,55,-65,-8,189,223,-34,-206
,3297,2015/08/20 07:43:33.97,-1224,2248,-16088,54,-58,46,181,219,-38,-200
,3298,2015/08/20 07:43:33.98,-1024,2192,-16392,-16,-25,129,182,219,-37,-200
,3299,2015/08/20 07:43:33.99,-1056,2328,-16312,-30,-42,193,180,216,-36,-198
,3300,2015/08/20 07:43:34.00,-976,2240,-16224,-31,-26,184,181,211,-30,-196
,3301,2015/08/20 07:43:34.01,-944,2416,-16096,-51,17,234,176,214,-38,-195
,3302,2015/08/20 07:43:34.02,-808,2408,-16264,-40,31,213,174,213,-39,-193
,3303,2015/08/20 07:43:34.03,-1272,2336,-16304,-7,27,152,174,206,-32,-190
,3304,2015/08/20 07:43:34.04,-1120,2320,-16368,-23,4,161,201,225,-24,-213
,3305,2015/08/20 07:43:34.05,-1128,2352,-16240,-18,14,129,223,235,-12,-229
,3306,2015/08/20 07:43:34.06,-1184,2472,-16104,0,13,124,256,254,2,-255
,3307,2015/08/20 07:43:34.07,-976,2104,-16136,3,39,130,272,254,18,-263
,3308,2015/08/20 07:43:34.08,-1064,2576,-15936,138,28,29,277,263,14,-270
,3309,2015/08/20 07:43:34.09,-864,2384,-16032,-84,153,3,260,251,9,-255
,3310,2015/08/20 07:43:34.10,-1144,2224,-16048,-157,232,7,244,240,4,-242
,3311,2015/08/20 07:43:34.11,-1160,2304,-16224,-175,250,48,236,234,2,-235
,3312,2015/08/20 07:43:34.12,-776,2328,-16096,-178,217,103,234,240,-6,-237
,3313,2015/08/20 07:43:34.13,-760,2120,-16216,-119,171,126,224,235,-11,-229
,3314,2015/08/20 07:43:34.14,-880,2368,-16304,-121,144,152,229,242,-13,-235
,3315,2015/08/20 07:43:34.15,-864,2376,-16168,-78,104,148,221,235,-14,-228
,3316,2015/08/20 07:43:34.16,-1040,2568,-16128,-77,96,137,210,226,-16,-218
,3317,2015/08/20 07:43:34.17,-904,2560,-16240,-90,81,134,206,223,-17,-214
,3318,2015/08/20 07:43:34.18,-768,2496,-16384,-73,48,98,205,224,-19,-214
,3319,2015/08/20 07:43:34.19,-752,2576,-16272,-71,24,82,206,223,-17,-214
,3320,2015/08/20 07:43:34.20,-920,2464,-16240,-62,-32,21,198,219,-21,-208
,3321,2015/08/20 07:43:34.21,-1008,2544,-16192,-39,-30,-91,194,214,-20,-204
,3322,2015/08/20 07:43:34.22,-1032,2480,-16272,10,-61,-132,188,210,-22,-199
,3323,2015/08/20 07:43:34.23,-984,2432,-16240,-1,-33,-180,181,199,-18,-190
,3324,2015/08/20 07:43:34.24,-1176,2432,-16224,40,-10,-216,170,191,-21,-180
,3325,2015/08/20 07:43:34.25,-1168,2432,-16120,13,-14,-201,178,196,-18,-187
,3326,2015/08/20 07:43:34.26,-896,2376,-16256,41,-28,-118,177,198,-21,-187
,3327,2015/08/20 07:43:34.27,-1032,2400,-16360,43,-17,-111,184,204,-20,-194
,3328,2015/08/20 07:43:34.28,-880,2472,-16136,35,-4,-110,179,203,-24,-191
,3329,2015/08/20 07:43:34.29,-1040,2472,-16264,22,13,-104,179,203,-24,-191
,3330,2015/08/20 07:43:34.30,-992,2568,-16192,48,0,-96,171,202,-31,-186
,3331,2015/08/20 07:43:34.31,-1136,2232,-16200,50,28,-107,176,201,-25,-188
,3332,2015/08/20 07:43:34.32,-1208,2448,-16224,44,47,-81,170,198,-28,-184
,3333,2015/08/20 07:43:34.33,-984,2368,-16216,55,28,-57,175,197,-22,-186
,3334,2015/08/20 07:43:34.34,-1192,2352,-16152,63,18,-43,170,200,-30,-185
,3335,2015/08/20 07:43:34.35,-1080,2384,-16288,65,37,-71,174,202,-28,-188
,3336,2015/08/20 07:43:34.36,-1184,2528,-16128,51,28,-78,170,204,-34,-187
,3337,2015/08/20 07:43:34.37,-1168,2432,-16328,46,39,-79,171,201,-30,-186
,3338,2015/08/20 07:43:34.38,-928,2456,-16200,53,34,-87,163,199,-36,-181
,3339,2015/08/20 07:43:34.39,-1016,2384,-16112,52,7,-133,170,201,-31,-185
,3340,2015/08/20 07:43:34.40,-920,2488,-16120,58,2,-154,166,203,-37,-184
,3341,2015/08/20 07:43:34.41,-920,2400,-16200,52,-18,-156,170,203,-33,-186
,3342,2015/08/20 07:43:34.42,-1224,2368,-16104,62,-12,-159,164,201,-37,-182
,3343,2015/08/20 07:43:34.43,-1104,2504,-16104,72,-32,-154,171,200,-29,-185
,3344,2015/08/20 07:43:34.44,-832,2456,-15992,46,-14,-144,164,197,-33,-180
,3345,2015/08/20 07:43:34.45,-1040,2496,-16192,61,-22,-125,178,203,-25,-190
,3346,2015/08/20 07:43:34.46,-752,2528,-16224,75,-35,-98,159,194,-35,-176
,3347,2015/08/20 07:43:34.47,-1384,2400,-16272,72,-25,-118,166,198,-32,-182
,3348,2015/08/20 07:43:34.48,-1016,2520,-16232,67,-25,-111,156,188,-32,-172
,3349,2015/08/20 07:43:34.49,-1136,2496,-16176,62,0,-71,168,196,-28,-182
,3350,2015/08/20 07:43:34.50,-1232,2312,-16168,101,-5,-72,160,194,-34,-177
,3351,2015/08/20 07:43:34.51,-1072,2400,-16240,118,35,-55,170,197,-27,-183
,3352,2015/08/20 07:43:34.52,-1168,2312,-16304,105,59,-49,158,194,-36,-176
,3353,2015/08/20 07:43:34.53,-1360,2416,-16304,146,48,-35,167,195,-28,-181
,3354,2015/08/20 07:43:34.54,-984,2352,-16128,159,40,-26,150,182,-32,-166
,3355,2015/08/20 07:43:34.55,-928,2520,-16200,170,60,-40,168,188,-20,-178
,3356,2015/08/20 07:43:34.56,-1008,2376,-16024,158,119,-32,158,188,-30,-173
,3357,2015/08/20 07:43:34.57,-1008,2304,-16216,149,135,-25,168,192,-24,-180
,3358,2015/08/20 07:43:34.58,-992,2400,-16328,135,134,-22,162,195,-33,-178
,3359,2015/08/20 07:43:34.59,-920,2360,-16120,116,114,-38,169,196,-27,-182
,3360,2015/08/20 07:43:34.60,-800,2392,-16064,90,124,-46,158,196,-38,-177
,3361,2015/08/20 07:43:34.61,-1000,2384,-16248,50,132,-33,165,194,-29,-179
,3362,2015/08/20 07:43:34.62,-752,2280,-16216,28,177,-36,160,195,-35,-177
,3363,2015/08/20 07:43:34.63,-1320,2432,-16072,-14,199,-51,174,200,-26,-187
,3364,2015/08/20 07:43:34.64,-1152,2384,-16136,-49,198,-60,160,200,-40,-180
,3365,2015/08/20 07:43:34.65,-1208,2408,-16456,-41,199,-41,166,197,-31,-181
,3366,2015/08/20 07:43:34.66,-976,2480,-16248,-37,136,-45,158,200,-42,-179
,3367,2015/08/20 07:43:34.67,-1080,2472,-16184,-30,111,-31,168,198,-30,-183
,3368,2015/08/20 07:43:34.68,-1160,2424,-15992,16,88,5,158,198,-40,-178
,3369,2015/08/20 07:43:34.69,-1040,2552,-16368,48,72,-34,166,198,-32,-182
,3370,2015/08/20 07:43:34.70,-1128,2664,-16352,73,87,-17,156,193,-37,-174
,3371,2015/08/20 07:43:34.71,-1520,2448,-16336,79,99,38,163,187,-24,-175
,3372,2015/08/20 07:43:34.72,-1056,2384,-16288,114,45,119,154,194,-40,-174
,3373,2015/08/20 07:43:34.73,-1392,2576,-16296,96,-10,88,166,197,-31,-181
,3374,2015/08/20 07:43:34.74,-912,2368,-16120,106,0,110,152,193,-41,-172
,3375,2015/08/20 07:43:34.75,-1064,2352,-16288,59,-10,135,160,190,-30,-175
,3376,2015/08/20 07:43:34.76,-1040,2344,-16152,34,3,165,151,192,-41,-171
,3377,2015/08/20 07:43:34.77,-1136,2264,-16160,17,32,212,169,203,-34,-186
,3378,2015/08/20 07:43:34.78,-1296,2192,-16096,-35,91,259,157,202,-45,-179
,3379,2015/08/20 07:43:34.79,-944,2104,-16064,28,110,300,168,205,-37,-186
,3380,2015/08/20 07:43:34.80,-712,2352,-16128,66,126,334,163,212,-49,-187
,3381,2015/08/20 07:43:34.81,-1160,2320,-16192,127,135,325,180,218,-38,-199
,3382,2015/08/20 07:43:34.82,-1048,2344,-16112,115,108,294,166,210,-44,-188
,3383,2015/08/20 07:43:34.83,-1152,2592,-16104,149,89,229,180,204,-24,-192
,3384,2015/08/20 07:43:34.84,-1152,2496,-16136,136,95,155,167,202,-35,-184
,3385,2015/08/20 07:43:34.85,-1024,2400,-16040,118,106,85,172,201,-29,-186
,3386,2015/08/20 07:43:34.86,-1112,2504,-16064,94,148,-13,160,206,-46,-183
,3387,2015/08/20 07:43:34.87,-1000,2640,-16128,75,163,-124,161,193,-32,-177
,3388,2015/08/20 07:43:34.88,-936,2552,-16168,61,127,-196,151,192,-41,-171
,3389,2015/08/20 07:43:34.89,-1152,2496,-16224,35,110,-280,158,183,-25,-170
,3390,2015/08/20 07:43:34.90,-936,2576,-16352,56,41,-358,146,189,-43,-167
,3391,2015/08/20 07:43:34.91,-936,2608,-16192,34,0,-423,154,186,-32,-170
,3392,2015/08/20 07:43:34.92,-1048,2592,-16208,-2,-6,-498,141,185,-44,-163
,3393,2015/08/20 07:43:34.93,-1096,2504,-16152,-3,7,-474,151,182,-31,-166
,3394,2015/08/20 07:43:34.94,-1072,2592,-16288,-34,21,-417,138,181,-43,-159
,3395,2015/08/20 07:43:34.95,-1024,2488,-16304,-53,31,-391,141,173,-32,-157
,3396,2015/08/20 07:43:34.96,-1080,2528,-16232,-38,45,-337,138,183,-45,-160
,3397,2015/08/20 07:43:34.97,-952,2384,-16240,-24,32,-288,151,182,-31,-166
,3398,2015/08/20 07:43:34.98,-1184,2432,-16272,-5,28,-212,141,180,-39,-160
,3399,2015/08/20 07:43:34.99,-1080,2456,-16168,36,20,-171,151,181,-30,-166
,3400,2015/08/20 07:43:35.00,-1000,2384,-16200,37,55,-121,138,180,-42,-159
,3401,2015/08/20 07:43:35.01,-960,2392,-16336,77,53,-93,148,182,-34,-165
,3402,2015/08/20 07:43:35.02,-1288,2408,-16200,85,72,-49,132,178,-46,-155
,3403,2015/08/20 07:43:35.03,-1296,2360,-16120,106,57,-29,144,176,-32,-160
,3404,2015/08/20 07:43:35.04,-1224,2448,-16304,126,61,-24,135,179,-44,-157
,3405,2015/08/20 07:43:35.05,-960,2520,-16208,121,82,15,152,186,-34,-169
,3406,2015/08/20 07:43:35.06,-872,2336,-16152,131,61,36,141,187,-46,-164
,3407,2015/08/20 07:43:35.07,-928,2504,-16232,130,52,33,153,186,-33,-169
,3408,2015/08/20 07:43:35.08,-1168,2352,-16192,144,55,8,141,185,-44,-163
,3409,2015/08/20 07:43:35.09,-1048,2312,-16080,128,55,-27,154,185,-31,-169
,3410,2015/08/20 07:43:35.10,-1280,2432,-16168,119,38,-42,143,186,-43,-164
,3411,2015/08/20 07:43:35.11,-1168,2592,-16152,123,38,-5,151,184,-33,-167
,3412,2015/08/20 07:43:35.12,-1128,2560,-16200,99,44,-40,136,181,-45,-158
,3413,2015/08/20 07:43:35.13,-1096,2424,-16176,107,23,-58,150,183,-33,-166
,3414,2015/08/20 07:43:35.14,-960,2432,-16264,103,52,-71,142,187,-45,-164
,3415,2015/08/20 07:43:35.15,-1104,2512,-16224,120,42,-87,153,188,-35,-170
,3416,2015/08/20 07:43:35.16,-1008,2432,-16136,120,25,-100,137,183,-46,-160
,3417,2015/08/20 07:43:35.17,-1160,2448,-16000,104,16,-119,148,179,-31,-163
,3418,2015/08/20 07:43:35.18,-1280,2336,-16168,86,40,-117,138,182,-44,-160
,3419,2015/08/20 07:43:35.19,-1176,2424,-16016,91,58,-97,152,183,-31,-167
,3420,2015/08/20 07:43:35.20,-904,2496,-16136,77,76,-116,140,184,-44,-162
,3421,2015/08/20 07:43:35.21,-1080,2312,-16192,76,65,-110,149,184,-35,-166
,3422,2015/08/20 07:43:35.22,-1152,2384,-16120,99,59,-82,137,183,-46,-160
,3423,2015/08/20 07:43:35.23,-952,2360,-16128,70,91,-80,148,183,-35,-165
,3424,2015/08/20 07:43:35.24,-912,2280,-16072,88,68,-56,134,182,-48,-158
,3425,2015/08/20 07:43:35.25,-1272,2272,-16048,85,82,-40,144,181,-37,-162
,3426,2015/08/20 07:43:35.26,-928,2360,-16080,94,75,-9,132,180,-48,-156
,3427,2015/08/20 07:43:35.27,-1208,2424,-16248,105,98,11,155,192,-37,-173
,3428,2015/08/20 07:43:35.28,-976,2328,-16176,109,106,21,136,183,-47,-159
,3429,2015/08/20 07:43:35.29,-1144,2504,-16104,98,105,22,146,182,-36,-164
,3430,2015/08/20 07:43:35.30,-960,2480,-16168,109,76,7,133,173,-40,-153
,3431,2015/08/20 07:43:35.31,-1080,2400,-16328,115,69,-3,148,183,-35,-165
,3432,2015/08/20 07:43:35.32,-1144,2448,-16336,87,79,30,136,181,-45,-158
,3433,2015/08/20 07:43:35.33,-904,2432,-16360,89,77,23,146,183,-37,-164
,3434,2015/08/20 07:43:35.34,-1048,2408,-16344,76,68,10,125,174,-49,-149
,3435,2015/08/20 07:43:35.35,-1048,2408,-16272,68,64,-4,130,169,-39,-149
,3436,2015/08/20 07:43:35.36,-1056,2480,-16184,70,84,-9,100,152,-52,-126
,3437,2015/08/20 07:43:35.37,-824,2288,-16320,35,103,-23,93,141,-48,-117
,3438,2015/08/20 07:43:35.38,-1152,2296,-16064,14,127,-45,38,105,-67,-71
,3439,2015/08/20 07:43:35.39,-1248,2368,-16120,-20,111,-31,-3,61,-64,-29
,3440,2015/08/20 07:43:35.40,-1064,2360,-16032,-39,97,-38,-51,28,-79,11
,3441,2015/08/20 07:43:35.41,-872,2360,-16112,-57,120,-13,-48,27,-75,10
,3442,2015/08/20 07:43:35.42,-880,2424,-16160,-86,131,21,-26,64,-90,-19
,3443,2015/08/20 07:43:35.43,-944,2424,-16136,-124,125,9,49,131,-82,-90
,3444,2015/08/20 07:43:35.44,-1120,2504,-16312,-144,151,-15,125,215,-90,-170
,3445,2015/08/20 07:43:35.45,-888,2464,-16296,-169,142,-36,210,287,-77,-248
,3446,2015/08/20 07:43:35.46,-800,2576,-16216,-163,131,-20,252,332,-80,-292
,3447,2015/08/20 07:43:35.47,-960,2576,-16248,-138,88,-25,287,346,-59,-316
,3448,2015/08/20 07:43:35.48,-904,2456,-16208,-114,47,-16,288,348,-60,-318
,3449,2015/08/20 07:43:35.49,-1160,2384,-16200,-108,38,-33,306,350,-44,-328
,3450,2015/08/20 07:43:35.50,-920,2648,-16168,-89,5,-39,304,352,-48,-328
,3451,2015/08/20 07:43:35.51,-1048,2520,-16240,-43,-17,-47,315,351,-36,-333
,3452,2015/08/20 07:43:35.52,-1064,2576,-16152,-26,-34,-53,300,342,-42,-321
,3453,2015/08/20 07:43:35.53,-744,2552,-16048,-6,-44,-45,299,331,-32,-315
,3454,2015/08/20 07:43:35.54,-984,2488,-16304,31,-68,-53,278,321,-43,-299
,3455,2015/08/20 07:43:35.55,-1056,2536,-16408,42,-80,-37,275,312,-37,-293
,3456,2015/08/20 07:43:35.56,-1168,2352,-16184,62,-101,-14,260,306,-46,-283
,3457,2015/08/20 07:43:35.57,-872,2416,-16208,44,-82,12,266,300,-34,-283
,3458,2015/08/20 07:43:35.58,-1144,2560,-16112,63,-81,22,249,291,-42,-270
,3459,2015/08/20 07:43:35.59,-1032,2368,-16136,82,-71,57,251,285,-34,-268
,3460,2015/08/20 07:43:35.60,-992,2432,-16216,77,-57,66,236,280,-44,-258
,3461,2015/08/20 07:43:35.61,-1064,2472,-16064,68,-25,48,239,273,-34,-256
,3462,2015/08/20 07:43:35.62,-1200,2592,-16240,75,18,49,226,266,-40,-246
,3463,2015/08/20 07:43:35.63,-1176,2584,-16120,57,12,63,231,264,-33,-247
,3464,2015/08/20 07:43:35.64,-952,2568,-15976,81,12,71,218,258,-40,-238
,3465,2015/08/20 07:43:35.65,-920,2512,-16040,80,17,54,222,251,-29,-236
,3466,2015/08/20 07:43:35.66,-1080,2352,-15936,93,39,35,208,243,-35,-225
,3467,2015/08/20 07:43:35.67,-1224,2504,-16120,105,89,17,207,236,-29,-221
,3468,2015/08/20 07:43:35.68,-1192,2520,-16224,116,115,-15,205,244,-39,-224
,3469,2015/08/20 07:43:35.69,-880,2560,-16304,77,143,-61,203,233,-30,-218
,3470,2015/08/20 07:43:35.70,-1152,2448,-16152,71,121,-79,194,231,-37,-212
,3471,2015/08/20 07:43:35.71,-864,2400,-16256,71,95,-102,196,223,-27,-209
,3472,2015/08/20 07:43:35.72,-1032,2496,-16272,44,82,-116,190,226,-36,-208
,3473,2015/08/20 07:43:35.73,-1112,2504,-16176,22,72,-130,192,223,-31,-207
,3474,2015/08/20 07:43:35.74,-1232,2488,-15984,38,51,-116,184,221,-37,-202
,3475,2015/08/20 07:43:35.75,-976,2512,-16248,40,68,-134,182,212,-30,-197
,3476,2015/08/20 07:43:35.76,-960,2560,-16088,50,68,-110,172,213,-41,-192
,3477,2015/08/20 07:43:35.77,-1040,2416,-16120,42,60,-71,167,204,-37,-185
,3478,2015/08/20 07:43:35.78,-944,2456,-16232,62,50,-79,169,213,-44,-191
,3479,2015/08/20 07:43:35.79,-1072,2400,-16192,86,73,-63,174,209,-35,-191
,3480,2015/08/20 07:43:35.80,-1120,2464,-16064,114,79,-41,171,210,-39,-190
,3481,2015/08/20 07:43:35.81,-1040,2528,-16272,134,70,-41,175,211,-36,-193
,3482,2015/08/20 07:43:35.82,-992,2424,-16288,153,64,-36,170,212,-42,-191
,3483,2015/08/20 07:43:35.83,-1112,2480,-16160,164,82,-29,170,210,-40,-190
,3484,2015/08/20 07:43:35.84,-768,2496,-16232,159,95,-13,163,208,-45,-185
,3485,2015/08/20 07:43:35.85,-1176,2464,-16264,154,68,-12,164,207,-43,-185
,3486,2015/08/20 07:43:35.86,-888,2512,-16216,162,60,0,159,205,-46,-182
,3487,2015/08/20 07:43:35.87,-1144,2432,-16176,139,81,-9,161,202,-41,-181
,3488,2015/08/20 07:43:35.88,-1000,2528,-16152,136,68,9,158,202,-44,-180
,3489,2015/08/20 07:43:35.89,-992,2408,-16104,124,62,-9,160,201,-41,-180
,3490,2015/08/20 07:43:35.90,-1152,2368,-16256,109,54,-3,153,192,-39,-172
,3491,2015/08/20 07:43:35.91,-816,2360,-16104,96,76,-11,128,161,-33,-144
,3492,2015/08/20 07:43:35.92,-1032,2400,-16288,106,52,-40,75,107,-32,-91
,3493,2015/08/20 07:43:35.93,-1136,2432,-16240,91,29,-59,24,54,-30,-39
,3494,2015/08/20 07:43:35.94,-1072,2544,-16096,108,34,-94,-13,14,-27,0
,3495,2015/08/20 07:43:35.95,-1368,2496,-16320,96,39,-82,-27,-8,-19,17
,3496,2015/08/20 07:43:35.96,-1032,2472,-16096,89,14,-64,-27,-11,-16,19
,3497,2015/08/20 07:43:35.97,-960,2552,-16136,78,18,-89,-14,-3,-11,8
,3498,2015/08/20 07:43:35.98,-1136,2504,-16328,84,32,-97,-3,12,-15,-4
,3499,2015/08/20 07:43:35.99,-1176,2448,-16064,82,10,-83,7,25,-18,-16
,3500,2015/08/20 07:43:36.00,-1200,2360,-16208,85,31,-88,24,47,-23,-35
,3501,2015/08/20 07:43:36.01,-1056,2608,-16224,68,17,-91,47,71,-24,-59
,3502,2015/08/20 07:43:36.02,-1256,2464,-16160,49,34,-70,64,92,-28,-78
,3503,2015/08/20 07:43:36.03,-1112,2408,-16088,54,45,-63,78,104,-26,-91
,3504,2015/08/20 07:43:36.04,-1096,2496,-16168,71,77,-41,86,114,-28,-100
,3505,2015/08/20 07:43:36.05,-1136,2496,-16080,79,56,-65,92,119,-27,-105
,3506,2015/08/20 07:43:36.06,-1376,2528,-16152,66,56,-47,97,127,-30,-112
,3507,2015/08/20 07:43:36.07,-1080,2552,-16312,97,75,-8,102,132,-30,-117
,3508,2015/08/20 07:43:36.08,-1056,2432,-15984,94,76,-26,106,138,-32,-122
,3509,2015/08/20 07:43:36.09,-1192,2344,-16168,94,77,9,118,152,-34,-135
,3510,2015/08/20 07:43:36.10,-944,2520,-16200,98,56,13,116,151,-35,-133
,3511,2015/08/20 07:43:36.11,-1136,2448,-16208,97,89,11,123,159,-36,-141
,3512,2015/08/20 07:43:36.12,-1128,2504,-16248,114,75,0,128,160,-32,-144
,3513,2015/08/20 07:43:36.13,-1176,2416,-16256,122,68,17,128,166,-38,-147
,3514,2015/08/20 07:43:36.14,-1208,2400,-16168,148,94,5,128,165,-37,-146
,3515,2015/08/20 07:43:36.15,-896,2352,-16344,132,100,-4,130,171,-41,-150
,3516,2015/08/20 07:43:36.16,-1040,2344,-16192,137,83,-3,137,175,-38,-156
,3517,2015/08/20 07:43:36.17,-1208,2520,-16160,156,101,-44,137,176,-39,-156
,3518,2015/08/20 07:43:36.18,-1176,2480,-16248,160,135,-65,129,167,-38,-148
,3519,2015/08/20 07:43:36.19,-952,2528,-16184,172,143,-87,140,180,-40,-160
,3520,2015/08/20 07:43:36.20,-1144,2480,-16224,159,119,-81,149,185,-36,-167
,3521,2015/08/20 07:43:36.21,-1144,2352,-16120,154,103,-89,144,182,-38,-163
,3522,2015/08/20 07:43:36.22,-800,2496,-16160,143,119,-102,149,182,-33,-165
,3523,2015/08/20 07:43:36.23,-1160,2456,-16128,146,140,-87,144,180,-36,-162
,3524,2015/08/20 07:43:36.24,-1104,2512,-16136,87,146,-83,146,182,-36,-164
,3525,2015/08/20 07:43:36.25,-1280,2472,-16264,51,154,-61,145,185,-40,-165
,3526,2015/08/20 07:43:36.26,-928,2456,-16272,21,162,-72,152,188,-36,-170
,3527,2015/08/20 07:43:36.27,-1072,2360,-16152,5,151,-63,146,185,-39,-165
,3528,2015/08/20 07:43:36.28,-1000,2648,-16208,14,90,-44,149,183,-34,-166
,3529,2015/08/20 07:43:36.29,-912,2384,-16336,31,65,-62,144,181,-37,-162
,3530,2015/08/20 07:43:36.30,-776,2448,-16304,61,30,-50,150,182,-32,-166
,3531,2015/08/20 07:43:36.31,-1016,2408,-16216,79,6,-60,148,182,-34,-165
,3532,2015/08/20 07:43:36.32,-1056,2376,-16200,117,-12,-69,152,184,-32,-168
,3533,2015/08/20 07:43:36.33,-1128,2544,-16224,135,-35,-67,144,183,-39,-163
,3534,2015/08/20 07:43:36.34,-952,2528,-16136,149,-55,-55,147,183,-36,-165
,3535,2015/08/20 07:43:36.35,-1072,2552,-16160,166,-68,-54,141,179,-38,-160
,3536,2015/08/20 07:43:36.36,-1000,2432,-16176,183,-74,-38,146,177,-31,-161
,3537,2015/08/20 07:43:36.37,-1144,2336,-16256,192,-79,-25,143,178,-35,-160
,3538,2015/08/20 07:43:36.38,-1208,2392,-16104,180,-90,-11,148,180,-32,-164
,3539,2015/08/20 07:43:36.39,-1008,2392,-16224,185,-82,-11,143,180,-37,-161
,3540,2015/08/20 07:43:36.40,-1128,2488,-16136,176,-48,34,149,180,-31,-164
,3541,2015/08/20 07:43:36.41,-1152,2408,-16048,162,-51,41,144,183,-39,-163
,3542,2015/08/20 07:43:36.42,-1128,2312,-16176,137,-15,41,152,183,-31,-167
,3543,2015/08/20 07:43:36.43,-840,2472,-16080,97,12,43,145,185,-40,-165
,3544,2015/08/20 07:43:36.44,-1152,2488,-16200,107,28,35,151,187,-36,-169
,3545,2015/08/20 07:43:36.45,-1248,2416,-16096,121,32,37,142,185,-43,-163
,3546,2015/08/20 07:43:36.46,-1344,2376,-15920,130,35,55,152,185,-33,-168
,3547,2015/08/20 07:43:36.47,-1240,2352,-16176,135,59,39,148,185,-37,-166
,3548,2015/08/20 07:43:36.48,-808,2552,-16160,151,89,11,155,185,-30,-170
,3549,2015/08/20 07:43:36.49,-1368,2448,-16136,131,133,-36,144,182,-38,-163
,3550,2015/08/20 07:43:36.50,-1120,2424,-16096,103,147,-61,161,192,-31,-176
,3551,2015/08/20 07:43:36.51,-1152,2576,-16208,64,155,-82,145,182,-37,-163
,3552,2015/08/20 07:43:36.52,-920,2408,-16256,36,142,-117,157,185,-28,-171
,3553,2015/08/20 07:43:36.53,-1032,2432,-16128,21,130,-137,143,176,-33,-159
,3554,2015/08/20 07:43:36.54,-984,2488,-16120,2,117,-126,159,190,-31,-174
,3555,2015/08/20 07:43:36.55,-1040,2512,-16128,-18,95,-154,153,190,-37,-171
,3556,2015/08/20 07:43:36.56,-1168,2368,-16200,6,84,-137,164,192,-28,-178
,3557,2015/08/20 07:43:36.57,-912,2488,-16192,-3,81,-139,149,183,-34,-166
,3558,2015/08/20 07:43:36.58,-992,2456,-16072,29,75,-121,156,183,-27,-169
,3559,2015/08/20 07:43:36.59,-1080,2576,-16192,34,84,-120,137,178,-41,-157
,3560,2015/08/20 07:43:36.60,-1072,2456,-16176,38,81,-108,153,188,-35,-170
,3561,2015/08/20 07:43:36.61,-1040,2312,-16176,67,81,-86,142,184,-42,-163
,3562,2015/08/20 07:43:36.62,-1016,2424,-16360,73,103,-63,152,181,-29,-166
,3563,2015/08/20 07:43:36.63,-1016,2312,-16248,80,110,-37,141,181,-40,-161
,3564,2015/08/20 07:43:36.64,-1080,2552,-16152,100,114,-17,151,185,-34,-168
,3565,2015/08/20 07:43:36.65,-984,2448,-16240,119,124,5,140,180,-40,-160
,3566,2015/08/20 07:43:36.66,-920,2416,-16096,130,115,15,148,180,-32,-164
,3567,2015/08/20 07:43:36.67,-1024,2360,-16184,132,116,33,139,182,-43,-160
,3568,2015/08/20 07:43:36.68,-1312,2568,-16240,145,123,21,151,185,-34,-168
,3569,2015/08/20 07:43:36.69,-1064,2432,-16224,154,93,3,139,181,-42,-160
,3570,2015/08/20 07:43:36.70,-1144,2304,-16376,153,93,-4,146,179,-33,-162
,3571,2015/08/20 07:43:36.71,-1032,2496,-16336,145,96,-22,135,176,-41,-155
,3572,2015/08/20 07:43:36.72,-1096,2448,-16232,130,72,-30,148,181,-33,-164
,3573,2015/08/20 07:43:36.73,-1032,2496,-16168,111,56,-22,139,181,-42,-160
,3574,2015/08/20 07:43:36.74,-1144,2456,-16256,128,63,-34,152,182,-30,-167
,3575,2015/08/20 07:43:36.75,-1104,2352,-16272,120,59,-58,139,183,-44,-161
,3576,2015/08/20 07:43:36.76,-1072,2368,-16184,116,45,-78,146,183,-37,-164
,3577,2015/08/20 07:43:36.77,-936,2480,-16096,123,39,-86,136,186,-50,-161
,3578,2015/08/20 07:43:36.78,-1192,2416,-16136,106,60,-99,149,186,-37,-167
,3579,2015/08/20 07:43:36.79,-1128,2392,-16168,89,48,-102,138,181,-43,-159
,3580,2015/08/20 07:43:36.80,-1224,2472,-16248,105,36,-99,148,181,-33,-164
,3581,2015/08/20 07:43:36.81,-1152,2336,-16088,100,41,-99,137,179,-42,-158
,3582,2015/08/20 07:43:36.82,-976,2432,-16168,83,31,-89,149,179,-30,-164
,3583,2015/08/20 07:43:36.83,-1144,2408,-16200,81,32,-76,137,179,-42,-158
,3584,2015/08/20 07:43:36.84,-1272,2328,-16072,70,16,-59,148,183,-35,-165
,3585,2015/08/20 07:43:36.85,-1032,2400,-16168,55,43,-50,136,183,-47,-159
,3586,2015/08/20 07:43:36.86,-1096,2488,-16128,63,39,-36,144,179,-35,-161
,3587,2015/08/20 07:43:36.87,-1184,2448,-16264,27,33,-30,134,178,-44,-156
,3588,2015/08/20 07:43:36.88,-952,2416,-16200,18,18,-19,147,181,-34,-164
,3589,2015/08/20 07:43:36.89,-936,2416,-16104,11,27,-9,138,184,-46,-161
,3590,2015/08/20 07:43:36.90,-1152,2240,-16160,-20,8,-12,149,187,-38,-168
,3591,2015/08/20 07:43:36.91,-1008,2592,-16016,-30,-1,6,142,194,-52,-168
,3592,2015/08/20 07:43:36.92,-1080,2352,-16200,-29,51,10,118,159,-41,-138
,3593,2015/08/20 07:43:36.93,-776,2368,-16024,-10,25,8,62,121,-59,-91
,3594,2015/08/20 07:43:36.94,-1096,2360,-16248,18,62,13,16,68,-52,-42
,3595,2015/08/20 07:43:36.95,-1024,2448,-16304,14,60,12,-34,35,-69,0
,3596,2015/08/20 07:43:36.96,-1064,2392,-16248,44,76,1,-64,0,-64,32
,3597,2015/08/20 07:43:36.97,-1120,2416,-16192,59,77,-3,-103,-22,-81,62
,3598,2015/08/20 07:43:36.98,-1064,2544,-16168,94,117,-7,-109,-36,-73,72
,3599,2015/08/20 07:43:36.99,-976,2304,-16240,97,125,-27,-111,-28,-83,69
,3600,2015/08/20 07:43:37.00,-1080,2392,-16192,90,125,-43,-83,-8,-75,45
,3601,2015/08/20 07:43:37.01,-1200,2360,-16208,83,150,-45,-52,32,-84,10
,3602,2015/08/20 07:43:37.02,-888,2352,-16112,76,88,-46,-4,70,-74,-33
,3603,2015/08/20 07:43:37.03,-872,2536,-16208,88,103,-46,20,103,-83,-61
,3604,2015/08/20 07:43:37.04,-1160,2488,-16176,67,102,-50,54,128,-74,-91
,3605,2015/08/20 07:43:37.05,-1152,2352,-16064,22,99,-72,64,145,-81,-104
,3606,2015/08/20 07:43:37.06,-928,2472,-16232,-5,118,-72,90,158,-68,-124
,3607,2015/08/20 07:43:37.07,-1016,2416,-16216,-11,93,-68,89,166,-77,-127
,3608,2015/08/20 07:43:37.08,-1376,2408,-16312,-5,69,-61,110,173,-63,-141
,3609,2015/08/20 07:43:37.09,-1056,2472,-16160,31,14,-47,109,179,-70,-144
,3610,2015/08/20 07:43:37.10,-800,2528,-16120,70,-21,-38,128,184,-56,-156
,3611,2015/08/20 07:43:37.11,-1080,2496,-16184,94,-15,-34,123,187,-64,-155
,3612,2015/08/20 07:43:37.12,-992,2360,-16184,128,-19,-22,138,192,-54,-165
,3613,2015/08/20 07:43:37.13,-1040,2536,-16136,151,-22,-27,129,195,-66,-162
,3614,2015/08/20 07:43:37.14,-888,2224,-16312,175,-19,-29,143,195,-52,-169
,3615,2015/08/20 07:43:37.15,-768,2472,-16152,199,-16,-38,133,195,-62,-164
,3616,2015/08/20 07:43:37.16,-936,2472,-16176,198,-23,-17,146,196,-50,-171
,3617,2015/08/20 07:43:37.17,-992,2384,-16320,202,-45,6,137,198,-61,-167
,3618,2015/08/20 07:43:37.18,-944,2272,-16352,168,-29,36,153,202,-49,-177
,3619,2015/08/20 07:43:37.19,-992,2352,-16256,164,-29,51,142,202,-60,-172
,3620,2015/08/20 07:43:37.20,-1128,2408,-16216,146,3,57,154,199,-45,-176
,3621,2015/08/20 07:43:37.21,-1120,2392,-16160,134,25,47,144,191,-47,-167
,3622,2015/08/20 07:43:37.22,-952,2360,-16128,126,56,19,150,182,-32,-166
,3623,2015/08/20 07:43:37.23,-1184,2400,-16224,103,71,19,137,173,-36,-155
,3624,2015/08/20 07:43:37.24,-1184,2424,-16192,100,58,-8,145,162,-17,-153
,3625,2015/08/20 07:43:37.25,-1184,2392,-16224,105,42,-2,135,160,-25,-147
,3626,2015/08/20 07:43:37.26,-912,2328,-16240,122,29,13,150,165,-15,-157
,3627,2015/08/20 07:43:37.27,-1080,2432,-16040,118,60,5,142,170,-28,-156
,3628,2015/08/20 07:43:37.28,-1048,2352,-16184,99,72,-41,153,174,-21,-163
,3629,2015/08/20 07:43:37.29,-1360,2368,-16240,82,95,-47,140,174,-34,-157
,3630,2015/08/20 07:43:37.30,-936,2368,-16120,49,102,-59,152,173,-21,-162
,3631,2015/08/20 07:43:37.31,-944,2408,-16216,20,83,-57,144,172,-28,-158
,3632,2015/08/20 07:43:37.32,-856,2416,-16120,-1,90,-72,166,186,-20,-176
,3633,2015/08/20 07:43:37.33,-840,2328,-16096,-2,93,-61,144,179,-35,-161
,3634,2015/08/20 07:43:37.34,-1128,2400,-16232,-7,31,-69,153,182,-29,-167
,3635,2015/08/20 07:43:37.35,-1048,2424,-16328,-8,9,-70,137,172,-35,-154
,3636,2015/08/20 07:43:37.36,-1168,2488,-16256,-12,-7,-61,151,181,-30,-166
,3637,2015/08/20 07:43:37.37,-1240,2288,-16256,-12,-14,-68,143,180,-37,-161
,3638,2015/08/20 07:43:37.38,-1128,2456,-16088,7,-27,-78,156,182,-26,-169
,3639,2015/08/20 07:43:37.39,-1256,2352,-16120,10,-26,-74,145,182,-37,-163
,3640,2015/08/20 07:43:37.40,-1112,2520,-15992,48,-38,-58,155,185,-30,-170
,3641,2015/08/20 07:43:37.41,-1408,2480,-16208,44,-1,-34,135,174,-39,-154
,3642,2015/08/20 07:43:37.42,-1064,2272,-16192,65,14,-12,152,180,-28,-166
,3643,2015/08/20 07:43:37.43,-1256,2424,-16104,78,23,18,141,180,-39,-160
,3644,2015/08/20 07:43:37.44,-1128,2456,-16240,106,35,42,150,182,-32,-166
,3645,2015/08/20 07:43:37.45,-1144,2408,-16160,113,51,75,131,174,-43,-152
,3646,2015/08/20 07:43:37.46,-1168,2560,-16160,126,48,76,128,158,-30,-143
,3647,2015/08/20 07:43:37.47,-1232,2312,-16256,115,54,85,95,132,-37,-113
,3648,2015/08/20 07:43:37.48,-1064,2504,-16288,117,51,54,61,92,-31,-76
,3649,2015/08/20 07:43:37.49,-1048,2456,-16208,100,67,36,3,45,-42,-24
,3650,2015/08/20 07:43:37.50,-1048,2544,-16104,96,64,32,-26,11,-37,7
,3651,2015/08/20 07:43:37.51,-1048,2424,-16104,104,35,4,-30,15,-45,7
,3652,2015/08/20 07:43:37.52,-1160,2488,-16088,100,48,-19,31,64,-33,-47
,3653,2015/08/20 07:43:37.53,-1240,2616,-16152,115,39,-51,111,146,-35,-128
,3654,2015/08/20 07:43:37.54,-1128,2552,-16200,117,42,-61,210,230,-20,-220
,3655,2015/08/20 07:43:37.55,-1072,2448,-16208,130,12,-65,267,290,-23,-278
,3656,2015/08/20 07:43:37.56,-920,2392,-16120,130,40,-76,308,323,-15,-315
,3657,2015/08/20 07:43:37.57,-1096,2384,-16192,125,27,-85,313,334,-21,-323
,3658,2015/08/20 07:43:37.58,-864,2480,-16136,130,17,-98,323,334,-11,-328
,3659,2015/08/20 07:43:37.59,-1136,2312,-16256,123,29,-83,311,330,-19,-320
,3660,2015/08/20 07:43:37.60,-1104,2360,-16104,114,28,-78,307,321,-14,-314
,3661,2015/08/20 07:43:37.61,-1040,2416,-16176,112,43,-73,289,310,-21,-299
,3662,2015/08/20 07:43:37.62,-928,2336,-16128,78,36,-52,286,301,-15,-293
,3663,2015/08/20 07:43:37.63,-1016,2464,-16080,88,33,-42,274,297,-23,-285
,3664,2015/08/20 07:43:37.64,-1032,2504,-16136,74,49,-16,274,293,-19,-283
,3665,2015/08/20 07:43:37.65,-1032,2384,-16216,64,51,-5,261,290,-29,-275
,3666,2015/08/20 07:43:37.66,-1224,2376,-16232,46,36,15,261,286,-25,-273
,3667,2015/08/20 07:43:37.67,-880,2392,-16216,45,39,15,249,276,-27,-262
,3668,2015/08/20 07:43:37.68,-984,2408,-16096,47,35,4,249,266,-17,-257
,3669,2015/08/20 07:43:37.69,-1192,2488,-16136,36,37,23,237,264,-27,-250
,3670,2015/08/20 07:43:37.70,-1104,2376,-16112,26,30,18,236,260,-24,-248
,3671,2015/08/20 07:43:37.71,-1128,2368,-16160,5,36,12,226,257,-31,-241
,3672,2015/08/20 07:43:37.72,-624,2336,-16264,41,23,-3,224,253,-29,-238
,3673,2015/08/20 07:43:37.73,-1152,2480,-16232,49,38,-8,222,261,-39,-241
,3674,2015/08/20 07:43:37.74,-1104,2448,-16248,42,23,-30,214,247,-33,-230
,3675,2015/08/20 07:43:37.75,-1080,2368,-16208,22,35,-42,203,240,-37,-221
,3676,2015/08/20 07:43:37.76,-872,2392,-16184,33,36,-50,199,225,-26,-212
,3677,2015/08/20 07:43:37.77,-1032,2408,-16248,48,45,-71,192,233,-41,-212
,3678,2015/08/20 07:43:37.78,-1128,2400,-16128,70,68,-77,194,230,-36,-212
,3679,2015/08/20 07:43:37.79,-1136,2304,-15984,29,91,-102,189,229,-40,-209
,3680,2015/08/20 07:43:37.80,-1312,2312,-16224,40,117,-89,192,226,-34,-209
,3681,2015/08/20 07:43:37.81,-1104,2504,-16200,38,122,-96,187,227,-40,-207
,3682,2015/08/20 07:43:37.82,-1056,2456,-16112,14,93,-65,173,208,-35,-190
,3683,2015/08/20 07:43:37.83,-1136,2344,-16136,-14,82,-52,172,210,-38,-191
,3684,2015/08/20 07:43:37.84,-1072,2608,-16152,-52,105,-37,175,210,-35,-192
,3685,2015/08/20 07:43:37.85,-1008,2408,-16168,-88,148,-57,175,213,-38,-194
,3686,2015/08/20 07:43:37.86,-1120,2464,-16120,-121,169,-54,176,210,-34,-193
,3687,2015/08/20 07:43:37.87,-1112,2432,-16080,-127,167,-53,173,209,-36,-191
,3688,2015/08/20 07:43:37.88,-1024,2384,-16232,-124,131,-52,172,206,-34,-189
,3689,2015/08/20 07:43:37.89,-1000,2584,-16200,-82,115,-47,165,204,-39,-184
,3690,2015/08/20 07:43:37.90,-1184,2504,-16160,-39,67,-60,165,205,-40,-185
,3691,2015/08/20 07:43:37.91,-1000,2672,-16168,-8,44,-60,162,204,-42,-183
,3692,2015/08/20 07:43:37.92,-760,2416,-16208,28,18,-81,167,203,-36,-185
,3693,2015/08/20 07:43:37.93,-1024,2544,-16312,80,17,-107,166,203,-37,-184
,3694,2015/08/20 07:43:37.94,-1016,2480,-16320,95,-8,-100,166,202,-36,-184
,3695,2015/08/20 07:43:37.95,-936,2488,-16320,112,-23,-108,161,197,-36,-179
,3696,2015/08/20 07:43:37.96,-1160,2424,-16064,143,-35,-106,162,194,-32,-178
,3697,2015/08/20 07:43:37.97,-1184,2328,-16160,153,-46,-94,161,196,-35,-178
,3698,2015/08/20 07:43:37.98,-1064,2392,-16200,178,-66,-56,162,196,-34,-179
,3699,2015/08/20 07:43:37.99,-1256,2424,-16192,199,-72,-34,158,194,-36,-176
,3700,2015/08/20 07:43:38.00,-1160,2328,-16192,200,-66,-3,162,195,-33,-178
,3701,2015/08/20 07:43:38.01,-1248,2488,-16184,191,-50,8,161,196,-35,-178
,3702,2015/08/20 07:43:38.02,-1136,2328,-16192,181,-49,22,159,194,-35,-176
,3703,2015/08/20 07:43:38.03,-1128,2264,-16120,159,-49,28,155,191,-36,-173
,3704,2015/08/20 07:43:38.04,-1144,2424,-16224,144,22,35,152,185,-33,-168
,3705,2015/08/20 07:43:38.05,-960,2320,-16096,120,29,18,151,187,-36,-169
,3706,2015/08/20 07:43:38.06,-928,2464,-16152,118,45,29,151,187,-36,-169
,3707,2015/08/20 07:43:38.07,-1224,2368,-16040,114,41,32,152,186,-34,-169
,3708,2015/08/20 07:43:38.08,-1312,2384,-16080,124,39,23,147,184,-37,-165
,3709,2015/08/20 07:43:38.09,-944,2384,-16064,140,75,13,147,186,-39,-166
,3710,2015/08/20 07:43:38.10,-1120,2368,-16176,130,115,-4,149,186,-37,-167
,3711,2015/08/20 07:43:38.11,-1032,2320,-16120,102,136,-40,148,185,-37,-166
,3712,2015/08/20 07:43:38.12,-1112,2304,-16248,84,140,-63,143,185,-42,-164
,3713,2015/08/20 07:43:38.13,-1176,2392,-16184,52,153,-73,144,186,-42,-165
,3714,2015/08/20 07:43:38.14,-1504,2384,-16112,32,150,-93,149,194,-45,-171
,3715,2015/08/20 07:43:38.15,-1232,2392,-16160,35,124,-116,145,184,-39,-164
,3716,2015/08/20 07:43:38.16,-1224,2368,-16192,3,120,-127,143,182,-39,-162
,3717,2015/08/20 07:43:38.17,-1232,2408,-16192,9,87,-122,140,172,-32,-156
,3718,2015/08/20 07:43:38.18,-1064,2456,-16120,26,75,-136,141,181,-40,-161
,3719,2015/08/20 07:43:38.19,-1136,2400,-16168,37,49,-133,146,187,-41,-166
,3720,2015/08/20 07:43:38.20,-1104,2520,-16152,36,49,-146,147,190,-43,-168
,3721,2015/08/20 07:43:38.21,-1120,2616,-16232,42,41,-128,150,185,-35,-167
,3722,2015/08/20 07:43:38.22,-1296,2376,-16312,57,36,-138,145,184,-39,-164
,3723,2015/08/20 07:43:38.23,-1320,2504,-16128,53,37,-100,134,173,-39,-153
,3724,2015/08/20 07:43:38.24,-1224,2464,-16176,82,57,-75,140,184,-44,-162
,3725,2015/08/20 07:43:38.25,-1432,2456,-16120,84,62,-51,148,186,-38,-167
,3726,2015/08/20 07:43:38.26,-1272,2424,-16224,83,52,-33,144,185,-41,-164
,3727,2015/08/20 07:43:38.27,-952,2360,-16128,104,57,-20,144,182,-38,-163
,3728,2015/08/20 07:43:38.28,-1144,2392,-16240,112,68,1,139,180,-41,-159
,3729,2015/08/20 07:43:38.29,-1232,2432,-16224,118,53,10,141,182,-41,-161
,3730,2015/08/20 07:43:38.30,-976,2408,-16160,104,61,17,139,182,-43,-160
,3731,2015/08/20 07:43:38.31,-1560,2568,-16200,114,82,-4,145,184,-39,-164
,3732,2015/08/20 07:43:38.32,-1264,2448,-16096,121,63,9,140,182,-42,-161
,3733,2015/08/20 07:43:38.33,-1248,2320,-16096,116,63,-19,144,181,-37,-162
,3734,2015/08/20 07:43:38.34,-896,2552,-16224,97,38,-8,139,179,-40,-159
,3735,2015/08/20 07:43:38.35,-1296,2464,-16264,94,62,-31,147,185,-38,-166
,3736,2015/08/20 07:43:38.36,-1304,2520,-16216,85,55,-34,141,186,-45,-163
,3737,2015/08/20 07:43:38.37,-1224,2288,-16088,76,75,-62,147,182,-35,-164
,3738,2015/08/20 07:43:38.38,-1120,2544,-16152,90,42,-72,138,179,-41,-158
,3739,2015/08/20 07:43:38.39,-1152,2424,-16288,95,57,-74,146,178,-32,-162
,3740,2015/08/20 07:43:38.40,-1136,2384,-16200,89,70,-80,140,178,-38,-159
,3741,2015/08/20 07:43:38.41,-1080,2344,-16288,93,73,-78,148,181,-33,-164
,3742,2015/08/20 07:43:38.42,-960,2400,-16120,95,88,-72,142,179,-37,-160
,3743,2015/08/20 07:43:38.43,-1112,2360,-16176,91,92,-94,147,178,-31,-162
,3744,2015/08/20 07:43:38.44,-904,2344,-16208,117,75,-79,140,178,-38,-159
,3745,2015/08/20 07:43:38.45,-1248,2360,-16096,131,64,-63,149,181,-32,-165
,3746,2015/08/20 07:43:38.46,-1376,2464,-16080,117,76,-38,143,184,-41,-163
,3747,2015/08/20 07:43:38.47,-1096,2320,-16184,97,73,-21,150,182,-32,-166
,3748,2015/08/20 07:43:38.48,-1192,2376,-16072,83,104,-30,141,180,-39,-160
,3749,2015/08/20 07:43:38.49,-1072,2528,-16288,101,81,-11,148,181,-33,-164
,3750,2015/08/20 07:43:38.50,-1168,2336,-15984,82,95,-9,139,180,-41,-159
,3751,2015/08/20 07:43:38.51,-1008,2480,-16256,91,105,-21,145,181,-36,-163
,3752,2015/08/20 07:43:38.52,-920,2496,-16160,90,79,-21,138,182,-44,-160
,3753,2015/08/20 07:43:38.53,-1032,2376,-16160,90,75,-18,148,182,-34,-165
,3754,2015/08/20 07:43:38.54,-776,2352,-16056,85,69,-37,141,182,-41,-161
,3755,2015/08/20 07:43:38.55,-1096,2224,-16216,81,66,-22,156,193,-37,-174
,3756,2015/08/20 07:43:38.56,-960,2344,-16176,95,72,-28,140,181,-41,-160
,3757,2015/08/20 07:43:38.57,-1152,2552,-16328,90,85,-15,148,179,-31,-163
,3758,2015/08/20 07:43:38.58,-976,2408,-16160,86,84,-22,139,175,-36,-157
,3759,2015/08/20 07:43:38.59,-1096,2272,-16224,105,96,-23,136,172,-36,-154
,3760,2015/08/20 07:43:38.60,-1224,2384,-16160,117,93,-25,92,142,-50,-117
,3761,2015/08/20 07:43:38.61,-896,2264,-16080,141,115,-9,48,102,-54,-75
,3762,2015/08/20 07:43:38.62,-1288,2280,-16296,140,134,-21,-12,56,-68,-22
,3763,2015/08/20 07:43:38.63,-1264,2352,-16160,146,149,-3,-44,20,-64,12
,3764,2015/08/20 07:43:38.64,-1048,2280,-16208,130,143,12,-86,-13,-73,49
,3765,2015/08/20 07:43:38.65,-1144,2472,-16256,118,138,18,-80,-17,-63,48
,3766,2015/08/20 07:43:38.66,-912,2360,-16200,98,131,12,-81,-10,-71,45
,3767,2015/08/20 07:43:38.67,-1120,2528,-16200,56,190,-8,-51,13,-64,19
,3768,2015/08/20 07:43:38.68,-904,2408,-16136,54,201,-12,-37,36,-73,0
,3769,2015/08/20 07:43:38.69,-1080,2480,-16136,49,184,-14,1,64,-63,-32
,3770,2015/08/20 07:43:38.70,-1024,2616,-16120,82,151,-35,18,86,-68,-52
,3771,2015/08/20 07:43:38.71,-864,2384,-16216,125,133,-36,51,106,-55,-78
,3772,2015/08/20 07:43:38.72,-1128,2560,-16160,153,108,-40,59,123,-64,-91
,3773,2015/08/20 07:43:38.73,-1024,2432,-16200,190,96,-73,84,139,-55,-111
,3774,2015/08/20 07:43:38.74,-1032,2336,-16312,181,62,-78,84,151,-67,-117
,3775,2015/08/20 07:43:38.75,-1104,2400,-16224,196,62,-71,103,160,-57,-131
,3776,2015/08/20 07:43:38.76,-1152,2480,-16384,217,24,-67,100,166,-66,-133
,3777,2015/08/20 07:43:38.77,-1080,2424,-16232,197,9,-64,118,168,-50,-143
,3778,2015/08/20 07:43:38.78,-864,2336,-16208,206,-22,-34,116,172,-56,-144
,3779,2015/08/20 07:43:38.79,-1264,2320,-16208,173,-34,-12,131,176,-45,-153
,3780,2015/08/20 07:43:38.80,-768,2288,-16264,148,-43,17,124,177,-53,-150
,3781,2015/08/20 07:43:38.81,-1264,2208,-16040,127,-50,43,136,177,-41,-156
,3782,2015/08/20 07:43:38.82,-1152,2416,-15976,84,-73,59,123,176,-53,-149
,3783,2015/08/20 07:43:38.83,-1024,2352,-16088,87,-48,84,132,174,-42,-153
,3784,2015/08/20 07:43:38.84,-1096,2400,-16232,69,-20,85,122,176,-54,-149
,3785,2015/08/20 07:43:38.85,-1296,2344,-16184,84,-4,56,136,176,-40,-156
,3786,2015/08/20 07:43:38.86,-1280,2336,-16168,107,58,41,127,176,-49,-151
,3787,2015/08/20 07:43:38.87,-1240,2280,-16160,117,35,50,142,180,-38,-161
,3788,2015/08/20 07:43:38.88,-1096,2280,-16168,137,46,49,133,182,-49,-157
,3789,2015/08/20 07:43:38.89,-1016,2392,-16056,166,23,44,146,184,-38,-165
,3790,2015/08/20 07:43:38.90,-1072,2464,-16128,183,57,36,135,181,-46,-158
,3791,2015/08/20 07:43:38.91,-1208,2288,-16080,173,82,14,144,181,-37,-162
,3792,2015/08/20 07:43:38.92,-952,2504,-16168,129,86,-9,131,180,-49,-155
,3793,2015/08/20 07:43:38.93,-1120,2408,-16184,102,90,-41,143,183,-40,-163
,3794,2015/08/20 07:43:38.94,-904,2424,-16256,84,112,-41,133,184,-51,-158
,3795,2015/08/20 07:43:38.95,-1208,2280,-16288,71,84,-65,146,184,-38,-165
,3796,2015/08/20 07:43:38.96,-1120,2296,-16240,42,101,-69,143,192,-49,-167
,3797,2015/08/20 07:43:38.97,-1328,2304,-16344,50,99,-62,147,183,-36,-165
,3798,2015/08/20 07:43:38.98,-1152,2296,-16200,33,68,-71,135,181,-46,-158
,3799,2015/08/20 07:43:38.99,-904,2464,-16256,25,42,-75,146,178,-32,-162
,3800,2015/08/20 07:43:39.00,-1176,2512,-16248,9,31,-65,133,183,-50,-158
,3801,2015/08/20 07:43:39.01,-1240,2384,-16296,26,42,-86,142,178,-36,-160
,3802,2015/08/20 07:43:39.02,-1256,2432,-16224,29,24,-77,130,177,-47,-153
,3803,2015/08/20 07:43:39.03,-1160,2568,-16200,31,12,-66,144,177,-33,-160
,3804,2015/08/20 07:43:39.04,-1392,2480,-16192,16,23,-72,136,179,-43,-157
,3805,2015/08/20 07:43:39.05,-1280,2352,-16272,29,26,-66,134,169,-35,-151
,3806,2015/08/20 07:43:39.06,-1328,2360,-16272,39,19,-39,127,177,-50,-152
,3807,2015/08/20 07:43:39.07,-1056,2400,-16176,47,15,-11,133,174,-41,-153
,3808,2015/08/20 07:43:39.08,-1112,2224,-16288,50,17,-8,127,174,-47,-150
,3809,2015/08/20 07:43:39.09,-944,2416,-16152,68,52,21,140,174,-34,-157
,3810,2015/08/20 07:43:39.10,-1072,2320,-16176,76,46,22,130,175,-45,-152
,3811,2015/08/20 07:43:39.11,-1032,2408,-16168,67,59,47,142,183,-41,-162
,3812,2015/08/20 07:43:39.12,-1096,2344,-16224,67,51,23,157,204,-47,-180
,3813,2015/08/20 07:43:39.13,-1312,2376,-16168,65,44,31,204,235,-31,-219
,3814,2015/08/20 07:43:39.14,-1032,2424,-16240,51,67,33,225,261,-36,-243
,3815,2015/08/20 07:43:39.15,-1120,2384,-16192,51,46,32,256,277,-21,-266
,3816,2015/08/20 07:43:39.16,-864,2360,-16128,35,33,13,248,278,-30,-263
,3817,2015/08/20 07:43:39.17,-1192,2480,-16136,33,38,6,254,275,-21,-264
,3818,2015/08/20 07:43:39.18,-1096,2304,-16072,14,29,-4,246,280,-34,-263
,3819,2015/08/20 07:43:39.19,-1056,2368,-16256,24,33,-39,273,293,-20,-283
,3820,2015/08/20 07:43:39.20,-1384,2296,-16208,53,19,-44,278,308,-30,-293
,3821,2015/08/20 07:43:39.21,-1056,2392,-16208,82,40,-45,301,320,-19,-310
,3822,2015/08/20 07:43:39.22,-1288,2344,-16104,79,46,-40,298,326,-28,-312
,3823,2015/08/20 07:43:39.23,-1048,2512,-16200,87,44,-31,313,328,-15,-320
,3824,2015/08/20 07:43:39.24,-1048,2472,-16248,95,28,-29,295,320,-25,-307
,3825,2015/08/20 07:43:39.25,-1048,2280,-16192,111,53,-29,291,305,-14,-298
,3826,2015/08/20 07:43:39.26,-880,2336,-16256,102,45,-40,266,291,-25,-278
,3827,2015/08/20 07:43:39.27,-1136,2472,-16192,97,53,-28,266,282,-16,-274
,3828,2015/08/20 07:43:39.28,-1208,2368,-16088,110,64,-49,246,274,-28,-260
,3829,2015/08/20 07:43:39.29,-1072,2352,-16128,102,61,-38,247,268,-21,-257
,3830,2015/08/20 07:43:39.30,-1256,2368,-16272,107,64,-24,229,259,-30,-244
,3831,2015/08/20 07:43:39.31,-1408,2368,-16240,106,61,-38,232,254,-22,-243
,3832,2015/08/20 07:43:39.32,-1408,2416,-16160,106,54,-41,214,247,-33,-230
,3833,2015/08/20 07:43:39.33,-1320,2320,-16264,79,50,-17,218,243,-25,-230
,3834,2015/08/20 07:43:39.34,-1144,2368,-16200,79,36,-8,204,237,-33,-220
,3835,2015/08/20 07:43:39.35,-1208,2352,-16168,81,19,10,210,229,-19,-219
,3836,2015/08/20 07:43:39.36,-1208,2392,-16072,82,36,-1,196,222,-26,-209
,3837,2015/08/20 07:43:39.37,-1056,2368,-16232,70,40,0,205,226,-21,-215
,3838,2015/08/20 07:43:39.38,-1184,2504,-16248,67,37,1,182,214,-32,-198
,3839,2015/08/20 07:43:39.39,-1056,2328,-16224,87,45,5,187,211,-24,-199
,3840,2015/08/20 07:43:39.40,-1200,2456,-16112,88,52,5,177,204,-27,-190
,3841,2015/08/20 07:43:39.41,-1040,2464,-16136,125,86,13,183,205,-22,-194
,3842,2015/08/20 07:43:39.42,-1064,2344,-16128,129,99,-26,171,205,-34,-188
,3843,2015/08/20 07:43:39.43,-1016,2408,-16112,129,120,-57,180,206,-26,-193
,3844,2015/08/20 07:43:39.44,-1264,2368,-16136,127,136,-51,162,195,-33,-178
,3845,2015/08/20 07:43:39.45,-1008,2304,-16192,120,127,-44,142,165,-23,-153
,3846,2015/08/20 07:43:39.46,-1288,2376,-16104,112,123,-50,89,118,-29,-103
,3847,2015/08/20 07:43:39.47,-880,2384,-16040,85,97,-56,77,103,-26,-90
,3848,2015/08/20 07:43:39.48,-1072,2352,-16080,60,121,-62,56,93,-37,-74
,3849,2015/08/20 07:43:39.49,-1056,2360,-16048,30,150,-75,70,99,-29,-84
,3850,2015/08/20 07:43:39.50,-1072,2368,-16216,-12,152,-85,75,110,-35,-92
,3851,2015/08/20 07:43:39.51,-1096,2320,-16248,-39,155,-84,96,125,-29,-110
,3852,2015/08/20 07:43:39.52,-1016,2432,-16288,-38,140,-71,96,136,-40,-116
,3853,2015/08/20 07:43:39.53,-840,2328,-16176,-25,118,-71,108,140,-32,-124
,3854,2015/08/20 07:43:39.54,-1160,2368,-16304,-4,70,-71,106,145,-39,-125
,3855,2015/08/20 07:43:39.55,-1104,2424,-16184,30,55,-64,118,149,-31,-133
,3856,2015/08/20 07:43:39.56,-976,2480,-16160,61,40,-87,117,154,-37,-135
,3857,2015/08/20 07:43:39.57,-1128,2480,-16240,88,19,-95,128,159,-31,-143
,3858,2015/08/20 07:43:39.58,-1280,2312,-16384,108,21,-97,125,164,-39,-144
,3859,2015/08/20 07:43:39.59,-1280,2392,-16304,104,-17,-108,132,165,-33,-148
,3860,2015/08/20 07:43:39.60,-1048,2328,-16360,126,-41,-86,127,166,-39,-146
,3861,2015/08/20 07:43:39.61,-1184,2400,-16312,113,-66,-65,134,168,-34,-151
,3862,2015/08/20 07:43:39.62,-1192,2248,-16264,105,-64,-53,129,169,-40,-149
,3863,2015/08/20 07:43:39.63,-1104,2344,-16264,106,-74,-37,134,168,-34,-151
,3864,2015/08/20 07:43:39.64,-1352,2368,-16248,106,-78,-6,130,172,-42,-151
,3865,2015/08/20 07:43:39.65,-1344,2344,-16176,121,-63,18,136,174,-38,-155
,3866,2015/08/20 07:43:39.66,-1360,2328,-16320,100,-28,27,133,176,-43,-154
,3867,2015/08/20 07:43:39.67,-896,2304,-16128,123,-5,26,139,174,-35,-156
,3868,2015/08/20 07:43:39.68,-1184,2232,-16328,107,31,14,136,173,-37,-154
,3869,2015/08/20 07:43:39.69,-1224,2336,-16184,94,46,18,142,175,-33,-158
,3870,2015/08/20 07:43:39.70,-1096,2240,-16224,76,45,32,139,178,-39,-158
,3871,2015/08/20 07:43:39.71,-1288,2328,-16216,112,32,12,145,182,-37,-163
,3872,2015/08/20 07:43:39.72,-1008,2424,-16048,112,54,20,144,183,-39,-163
,3873,2015/08/20 07:43:39.73,-1168,2304,-16120,105,83,6,147,180,-33,-163
,3874,2015/08/20 07:43:39.74,-944,2280,-16112,81,110,-10,143,177,-34,-160
,3875,2015/08/20 07:43:39.75,-1008,2504,-15912,35,130,-50,147,178,-31,-162
,3876,2015/08/20 07:43:39.76,-1104,2544,-16176,32,136,-78,142,179,-37,-160
,3877,2015/08/20 07:43:39.77,-1008,2520,-16120,19,133,-115,145,180,-35,-162
,3878,2015/08/20 07:43:39.78,-888,2376,-16184,3,114,-118,151,191,-40,-171
,3879,2015/08/20 07:43:39.79,-1152,2472,-16192,10,87,-145,145,181,-36,-163
,3880,2015/08/20 07:43:39.80,-1008,2536,-16304,-7,50,-150,144,182,-38,-163
,3881,2015/08/20 07:43:39.81,-1248,2472,-16192,-21,39,-169,143,172,-29,-157
,3882,2015/08/20 07:43:39.82,-960,2408,-16232,-9,32,-171,144,181,-37,-162
,3883,2015/08/20 07:43:39.83,-1072,2400,-16160,-8,17,-168,146,181,-35,-163
,3884,2015/08/20 07:43:39.84,-1120,2352,-16160,3,24,-165,146,182,-36,-164
,3885,2015/08/20 07:43:39.85,-1208,2312,-16072,-7,19,-149,147,182,-35,-164
,3886,2015/08/20 07:43:39.86,-1232,2368,-16104,21,51,-119,145,183,-38,-164
,3887,2015/08/20 07:43:39.87,-1328,2368,-16128,39,56,-85,136,171,-35,-153
,3888,2015/08/20 07:43:39.88,-1240,2296,-16184,49,70,-59,144,181,-37,-162
,3889,2015/08/20 07:43:39.89,-1416,2368,-16160,52,77,-11,145,180,-35,-162
,3890,2015/08/20 07:43:39.90,-1160,2240,-16248,73,95,19,146,183,-37,-164
,3891,2015/08/20 07:43:39.91,-784,2296,-16184,94,93,39,142,177,-35,-159
,3892,2015/08/20 07:43:39.92,-1112,2328,-16240,86,83,56,140,177,-37,-158
,3893,2015/08/20 07:43:39.93,-1016,2392,-16288,89,74,45,139,175,-36,-157
,3894,2015/08/20 07:43:39.94,-1024,2536,-16256,95,94,62,138,173,-35,-155
,3895,2015/08/20 07:43:39.95,-1064,2232,-16128,102,81,47,138,173,-35,-155
,3896,2015/08/20 07:43:39.96,-1168,2448,-16216,108,69,35,140,177,-37,-158
,3897,2015/08/20 07:43:39.97,-1296,2360,-16152,95,74,21,140,178,-38,-159
,3898,2015/08/20 07:43:39.98,-1048,2400,-16296,105,52,-9,141,177,-36,-159
,3899,2015/08/20 07:43:39.99,-1160,2432,-16320,110,60,-49,141,174,-33,-157
,3900,2015/08/20 07:43:40.00,-1304,2544,-16136,119,28,-81,142,174,-32,-158
,3901,2015/08/20 07:43:40.01,-1264,2360,-16192,102,35,-102,140,174,-34,-157
,3902,2015/08/20 07:43:40.02,-1152,2328,-16152,92,31,-136,141,175,-34,-158
,3903,2015/08/20 07:43:40.03,-1192,2432,-16224,96,29,-139,141,177,-36,-159
,3904,2015/08/20 07:43:40.04,-1136,2448,-16112,95,27,-148,142,176,-34,-159
,3905,2015/08/20 07:43:40.05,-1032,2528,-16104,105,35,-145,138,175,-37,-156
,3906,2015/08/20 07:43:40.06,-1256,2376,-16080,125,32,-140,138,178,-40,-158
,3907,2015/08/20 07:43:40.07,-1152,2192,-16056,125,61,-119,138,179,-41,-158
,3908,2015/08/20 07:43:40.08,-1096,2296,-16048,139,71,-87,140,178,-38,-159
,3909,2015/08/20 07:43:40.09,-1192,2224,-16216,109,70,-63,140,178,-38,-159
,3910,2015/08/20 07:43:40.10,-1128,2184,-16320,126,73,-41,142,177,-35,-159
,3911,2015/08/20 07:43:40.11,-1408,2488,-16224,102,71,-13,139,175,-36,-157
,3912,2015/08/20 07:43:40.12,-928,2360,-16184,102,74,2,143,175,-32,-159
,3913,2015/08/20 07:43:40.13,-896,2328,-16168,92,73,16,140,175,-35,-157
,3914,2015/08/20 07:43:40.14,-1048,2392,-15992,87,102,28,142,175,-33,-158
,3915,2015/08/20 07:43:40.15,-1128,2224,-16152,94,49,13,140,175,-35,-157
,3916,2015/08/20 07:43:40.16,-992,2136,-16208,86,56,11,144,176,-32,-160
,3917,2015/08/20 07:43:40.17,-992,2240,-16248,92,39,-9,137,171,-34,-154
,3918,2015/08/20 07:43:40.18,-1192,2320,-16224,101,44,-17,138,172,-34,-155
,3919,2015/08/20 07:43:40.19,-1120,2400,-16328,80,36,-14,144,181,-37,-162
,3920,2015/08/20 07:43:40.20,-1160,2336,-16192,92,46,-26,139,170,-31,-154
,3921,2015/08/20 07:43:40.21,-1080,2360,-16112,75,80,-41,136,172,-36,-154
,3922,2015/08/20 07:43:40.22,-1112,2352,-16304,91,85,-43,137,164,-27,-150
,3923,2015/08/20 07:43:40.23,-1224,2392,-16160,122,118,-57,137,172,-35,-154
,3924,2015/08/20 07:43:40.24,-1112,2376,-16128,138,119,-78,141,173,-32,-157
,3925,2015/08/20 07:43:40.25,-1328,2280,-16072,146,139,-76,136,174,-38,-155
,3926,2015/08/20 07:43:40.26,-1056,2192,-16152,147,166,-81,138,171,-33,-154
,3927,2015/08/20 07:43:40.27,-1096,2424,-16192,136,161,-107,135,173,-38,-154
,3928,2015/08/20 07:43:40.28,-912,2232,-16192,110,170,-91,132,166,-34,-149
,3929,2015/08/20 07:43:40.29,-1200,2360,-16160,105,154,-90,136,176,-40,-156
,3930,2015/08/20 07:43:40.30,-912,2416,-16168,64,161,-92,141,176,-35,-158
,3931,2015/08/20 07:43:40.31,-1096,2280,-16224,27,187,-108,140,176,-36,-158
,3932,2015/08/20 07:43:40.32,-1240,2408,-16272,-12,172,-80,146,177,-31,-161
,3933,2015/08/20 07:43:40.33,-1104,2400,-16096,-19,166,-69,138,175,-37,-156
,3934,2015/08/20 07:43:40.34,-992,2368,-16272,-20,129,-50,143,172,-29,-157
,3935,2015/08/20 07:43:40.35,-1040,2384,-16296,10,95,-41,139,176,-37,-157
,3936,2015/08/20 07:43:40.36,-1256,2344,-16264,49,53,-17,146,180,-34,-163
,3937,2015/08/20 07:43:40.37,-1152,2400,-16120,82,49,-7,139,181,-42,-160
,3938,2015/08/20 07:43:40.38,-920,2368,-16216,117,45,-9,146,181,-35,-163
,3939,2015/08/20 07:43:40.39,-1096,2528,-16184,153,26,-11,136,178,-42,-157
,3940,2015/08/20 07:43:40.40,-1144,2416,-16136,167,5,-25,144,181,-37,-162
,3941,2015/08/20 07:43:40.41,-1384,2400,-16264,157,11,-27,138,183,-45,-160
,3942,2015/08/20 07:43:40.42,-1264,2288,-16240,182,6,-40,147,185,-38,-166
,3943,2015/08/20 07:43:40.43,-1192,2424,-16336,180,-19,-15,140,183,-43,-161
,3944,2015/08/20 07:43:40.44,-960,2296,-16240,187,-7,-8,150,180,-30,-165
,3945,2015/08/20 07:43:40.45,-1056,2384,-16248,210,-16,26,140,175,-35,-157
,3946,2015/08/20 07:43:40.46,-960,2312,-16112,187,-17,28,143,174,-31,-158
,3947,2015/08/20 07:43:40.47,-1176,2392,-16048,174,8,32,133,174,-41,-153
,3948,2015/08/20 07:43:40.48,-1176,2352,-16328,161,35,56,141,177,-36,-159
,3949,2015/08/20 07:43:40.49,-1240,2272,-16120,150,60,46,134,180,-46,-157
,3950,2015/08/20 07:43:40.50,-1056,2360,-16200,140,106,35,146,186,-40,-166
,3951,2015/08/20 07:43:40.51,-904,2192,-16168,157,102,47,135,186,-51,-160
,3952,2015/08/20 07:43:40.52,-1160,2464,-16160,143,87,35,141,184,-43,-162
,3953,2015/08/20 07:43:40.53,-1144,2320,-16088,153,95,29,131,182,-51,-156
,3954,2015/08/20 07:43:40.54,-1240,2456,-15992,169,124,10,138,179,-41,-158
,3955,2015/08/20 07:43:40.55,-1280,2304,-16088,123,133,-18,128,172,-44,-150
,3956,2015/08/20 07:43:40.56,-1224,2416,-16240,81,172,-47,137,169,-32,-153
,3957,2015/08/20 07:43:40.57,-1072,2376,-16088,54,179,-105,128,169,-41,-148
,3958,2015/08/20 07:43:40.58,-1128,2416,-16224,33,162,-102,137,170,-33,-153
,3959,2015/08/20 07:43:40.59,-1096,2288,-16176,3,161,-127,128,171,-43,-149
,3960,2015/08/20 07:43:40.60,-1280,2240,-16136,-5,136,-126,134,168,-34,-151
,3961,2015/08/20 07:43:40.61,-1032,2344,-16192,2,115,-119,89,130,-41,-109
,3962,2015/08/20 07:43:40.62,-1080,2248,-16232,-13,110,-100,62,99,-37,-80
,3963,2015/08/20 07:43:40.63,-1184,2248,-16232,-19,67,-100,23,65,-42,-44
,3964,2015/08/20 07:43:40.64,-1032,2280,-16200,-12,85,-85,13,55,-42,-34
,3965,2015/08/20 07:43:40.65,-1024,2328,-16232,4,85,-82,-17,32,-49,-7
,3966,2015/08/20 07:43:40.66,-1160,2280,-16328,26,73,-63,-29,14,-43,7
,3967,2015/08/20 07:43:40.67,-864,2312,-16096,48,85,-55,-59,-6,-53,32
,3968,2015/08/20 07:43:40.68,-1168,2408,-16136,77,93,-39,-56,-9,-47,32
,3969,2015/08/20 07:43:40.69,-1104,2504,-16184,105,108,-25,-61,-5,-56,33
,3970,2015/08/20 07:43:40.70,-1160,2320,-16064,100,110,-6,-15,34,-49,-9
,3971,2015/08/20 07:43:40.71,-1104,2320,-16200,116,134,16,2,59,-57,-30
,3972,2015/08/20 07:43:40.72,-1096,2376,-16200,151,128,30,36,80,-44,-58
,3973,2015/08/20 07:43:40.73,-976,2488,-16216,144,94,51,40,91,-51,-65
,3974,2015/08/20 07:43:40.74,-1056,2312,-16112,160,104,62,64,106,-42,-85
,3975,2015/08/20 07:43:40.75,-880,2304,-16128,173,115,52,64,117,-53,-90
,3976,2015/08/20 07:43:40.76,-1080,2400,-16184,157,122,50,83,124,-41,-103
,3977,2015/08/20 07:43:40.77,-1120,2536,-16104,142,98,26,79,127,-48,-103
,3978,2015/08/20 07:43:40.78,-1224,2408,-16096,120,85,24,96,133,-37,-114
,3979,2015/08/20 07:43:40.79,-1176,2368,-16224,118,78,16,92,141,-49,-116
,3980,2015/08/20 07:43:40.80,-1232,2512,-16232,121,71,-12,109,150,-41,-129
,3981,2015/08/20 07:43:40.81,-1128,2384,-16128,116,72,-24,96,147,-51,-121
,3982,2015/08/20 07:43:40.82,-888,2384,-16256,128,71,-69,98,137,-39,-117
,3983,2015/08/20 07:43:40.83,-1232,2312,-16200,155,68,-79,79,129,-50,-104
,3984,2015/08/20 07:43:40.84,-1104,2424,-16224,165,40,-89,88,131,-43,-109
,3985,2015/08/20 07:43:40.85,-992,2352,-16208,166,25,-118,83,139,-56,-111
,3986,2015/08/20 07:43:40.86,-1024,2328,-16240,171,33,-119,102,144,-42,-123
,3987,2015/08/20 07:43:40.87,-1304,2224,-16136,160,30,-120,97,147,-50,-122
,3988,2015/08/20 07:43:40.88,-976,2424,-16168,164,49,-111,112,150,-38,-131
,3989,2015/08/20 07:43:40.89,-752,2248,-16224,156,16,-101,104,152,-48,-128
,3990,2015/08/20 07:43:40.90,-1024,2272,-16136,166,35,-92,119,157,-38,-138
,3991,2015/08/20 07:43:40.91,-1248,2264,-16040,173,44,-75,111,159,-48,-135
,3992,2015/08/20 07:43:40.92,-1272,2152,-16200,174,43,-56,124,162,-38,-143
,3993,2015/08/20 07:43:40.93,-1040,2112,-16208,144,23,-34,115,163,-48,-139
,3994,2015/08/20 07:43:40.94,-1360,2224,-16192,149,17,-16,127,166,-39,-146
,3995,2015/08/20 07:43:40.95,-1016,2296,-16256,134,41,-4,115,167,-52,-141
,3996,2015/08/20 07:43:40.96,-960,2408,-16128,140,18,2,126,168,-42,-147
,3997,2015/08/20 07:43:40.97,-1256,2192,-16080,119,32,35,114,169,-55,-141
,3998,2015/08/20 07:43:40.98,-1248,2368,-16096,117,31,34,119,163,-44,-141
,3999,2015/08/20 07:43:40.99,-872,2320,-16288,115,28,24,99,151,-52,-125
,4000,2015/08/20 07:43:41.00,-1008,2264,-16232,100,24,40,87,129,-42,-108
,4001,2015/08/20 07:43:41.01,-1096,2288,-16344,105,48,49,42,98,-56,-70
,4002,2015/08/20 07:43:41.02,-1328,2056,-16360,68,53,49,-6,45,-51,-19
,4003,2015/08/20 07:43:41.03,-1064,2176,-16248,59,28,46,-63,6,-69,28
,4004,2015/08/20 07:43:41.04,-1128,2088,-16296,76,40,32,-77,-15,-62,46
,4005,2015/08/20 07:43:41.05,-1032,2208,-16120,83,42,37,-56,20,-76,18
,4006,2015/08/20 07:43:41.06,-1200,2216,-16248,99,66,22,29,95,-66,-62
,4007,2015/08/20 07:43:41.07,-976,2296,-16216,81,96,-7,112,184,-72,-148
,4008,2015/08/20 07:43:41.08,-1032,2288,-16296,66,91,-2,200,250,-50,-225
,4009,2015/08/20 07:43:41.09,-960,2328,-16264,63,82,0,241,292,-51,-266
,4010,2015/08/20 07:43:41.10,-1024,2328,-16160,63,73,-4,271,305,-34,-288
,4011,2015/08/20 07:43:41.11,-896,2312,-16184,42,79,-25,286,325,-39,-305
,4012,2015/08/20 07:43:41.12,-1128,2352,-15992,-11,114,-47,298,324,-26,-311
,4013,2015/08/20 07:43:41.13,-992,2320,-16208,-33,128,-68,281,319,-38,-300
,4014,2015/08/20 07:43:41.14,-1144,2392,-16232,-50,130,-74,291,312,-21,-301
,4015,2015/08/20 07:43:41.15,-1128,2224,-16320,-69,98,-67,277,309,-32,-293
,4016,2015/08/20 07:43:41.16,-1040,2280,-16304,-57,58,-51,281,304,-23,-292
,4017,2015/08/20 07:43:41.17,-1104,2272,-16224,-30,25,-52,265,297,-32,-281
,4018,2015/08/20 07:43:41.18,-1024,2288,-16248,0,6,-48,269,294,-25,-281
,4019,2015/08/20 07:43:41.19,-1072,2336,-16104,27,-12,-40,254,290,-36,-272
,4020,2015/08/20 07:43:41.20,-1344,2328,-16192,35,-14,-45,259,285,-26,-272
,4021,2015/08/20 07:43:41.21,-912,2296,-16272,53,-22,-33,243,277,-34,-260
,4022,2015/08/20 07:43:41.22,-1296,2416,-16288,59,-39,-35,247,270,-23,-258
,4023,2015/08/20 07:43:41.23,-1328,2368,-16344,73,-48,-29,232,261,-29,-246
,4024,2015/08/20 07:43:41.24,-1288,2368,-16240,80,-56,-12,234,256,-22,-245
,4025,2015/08/20 07:43:41.25,-920,2280,-16256,89,-60,14,219,255,-36,-237
,4026,2015/08/20 07:43:41.26,-1184,2200,-16136,110,-66,12,222,251,-29,-236
,4027,2015/08/20 07:43:41.27,-904,2128,-16224,98,-70,45,206,244,-38,-225
,4028,2015/08/20 07:43:41.28,-1272,2408,-16224,101,-64,72,210,237,-27,-223
,4029,2015/08/20 07:43:41.29,-1136,2304,-16248,74,-34,68,198,233,-35,-215
,4030,2015/08/20 07:43:41.30,-944,2352,-16112,77,11,52,203,230,-27,-216
,4031,2015/08/20 07:43:41.31,-1384,2376,-16128,63,34,33,188,226,-38,-207
,4032,2015/08/20 07:43:41.32,-1144,2384,-16200,68,25,32,194,224,-30,-209
,4033,2015/08/20 07:43:41.33,-992,2352,-16200,58,40,23,185,222,-37,-203
,4034,2015/08/20 07:43:41.34,-1184,2376,-16064,70,31,36,193,218,-25,-205
,4035,2015/08/20 07:43:41.35,-1392,2176,-16104,74,54,4,183,220,-37,-201
,4036,2015/08/20 07:43:41.36,-1328,2328,-16168,88,83,-7,192,217,-25,-204
,4037,2015/08/20 07:43:41.37,-1224,2480,-16168,62,97,-46,182,213,-31,-197
,4038,2015/08/20 07:43:41.38,-1184,2264,-16080,56,134,-80,187,210,-23,-198
,4039,2015/08/20 07:43:41.39,-1160,2392,-16248,32,129,-107,177,208,-31,-192
,4040,2015/08/20 07:43:41.40,-888,2344,-16088,0,137,-107,183,206,-23,-194
,4041,2015/08/20 07:43:41.41,-1232,2320,-16136,-6,129,-118,171,204,-33,-187
,4042,2015/08/20 07:43:41.42,-1192,2248,-16200,-13,123,-102,185,218,-33,-201
,4043,2015/08/20 07:43:41.43,-1016,2192,-16216,-16,99,-101,169,209,-40,-189
,4044,2015/08/20 07:43:41.44,-1240,2272,-16184,-19,69,-64,172,204,-32,-188
,4045,2015/08/20 07:43:41.45,-976,2344,-16232,-14,85,-59,158,188,-30,-173
,4046,2015/08/20 07:43:41.46,-1096,2376,-16208,-16,65,-53,162,194,-32,-178
,4047,2015/08/20 07:43:41.47,-1024,2216,-16192,-2,46,-47,156,197,-41,-176
,4048,2015/08/20 07:43:41.48,-1096,2344,-16184,25,46,-42,165,202,-37,-183
,4049,2015/08/20 07:43:41.49,-1144,2152,-16312,18,51,-42,159,201,-42,-180
,4050,2015/08/20 07:43:41.50,-1224,2344,-16296,53,60,-24,162,197,-35,-179
,4051,2015/08/20 07:43:41.51,-1128,2248,-16248,67,53,-23,143,184,-41,-163
,4052,2015/08/20 07:43:41.52,-1080,2456,-16304,97,56,-22,156,193,-37,-174
,4053,2015/08/20 07:43:41.53,-1176,2512,-16192,114,52,-14,147,192,-45,-169
,4054,2015/08/20 07:43:41.54,-1160,2416,-16200,120,48,-16,155,193,-38,-174
,4055,2015/08/20 07:43:41.55,-1016,2408,-16224,119,46,-17,145,190,-45,-167
,4056,2015/08/20 07:43:41.56,-1264,2264,-16208,116,68,-6,149,188,-39,-168
,4057,2015/08/20 07:43:41.57,-960,2328,-16248,101,57,-22,142,184,-42,-163
,4058,2015/08/20 07:43:41.58,-1168,2328,-16088,78,72,-23,143,181,-38,-162
,4059,2015/08/20 07:43:41.59,-1144,2392,-16120,75,30,-27,139,180,-41,-159
,4060,2015/08/20 07:43:41.60,-936,2344,-16160,69,55,-26,143,181,-38,-162
,4061,2015/08/20 07:43:41.61,-1272,2320,-16200,80,57,-52,137,181,-44,-159
,4062,2015/08/20 07:43:41.62,-1008,2424,-16168,86,54,-63,139,181,-42,-160
,4063,2015/08/20 07:43:41.63,-1080,2512,-16288,104,44,-83,134,180,-46,-157
,4064,2015/08/20 07:43:41.64,-1048,2368,-16192,98,59,-82,137,176,-39,-156
,4065,2015/08/20 07:43:41.65,-1008,2232,-16104,97,38,-101,136,177,-41,-156
,4066,2015/08/20 07:43:41.66,-1112,2408,-16176,96,55,-108,141,179,-38,-160
,4067,2015/08/20 07:43:41.67,-1512,2368,-16160,107,63,-100,138,182,-44,-160
,4068,2015/08/20 07:43:41.68,-1240,2280,-16296,108,83,-91,144,185,-41,-164
,4069,2015/08/20 07:43:41.69,-1064,2200,-16136,99,68,-88,138,186,-48,-162
,4070,2015/08/20 07:43:41.70,-992,2240,-16120,92,66,-72,139,184,-45,-161
,4071,2015/08/20 07:43:41.71,-1064,2120,-16240,84,58,-51,136,182,-46,-159
,4072,2015/08/20 07:43:41.72,-960,2248,-16048,79,59,-33,139,179,-40,-159
,4073,2015/08/20 07:43:41.73,-1232,2296,-16264,60,75,-9,136,179,-43,-157
,4074,2015/08/20 07:43:41.74,-896,2360,-16216,66,93,-17,138,178,-40,-158
,4075,2015/08/20 07:43:41.75,-1160,2384,-16136,70,81,-10,136,180,-44,-158
,4076,2015/08/20 07:43:41.76,-1128,2368,-16200,78,88,-22,138,181,-43,-159
,4077,2015/08/20 07:43:41.77,-1392,2376,-16256,87,75,-18,136,181,-45,-158
,4078,2015/08/20 07:43:41.78,-1312,2488,-16288,91,70,-36,137,181,-44,-159
,4079,2015/08/20 07:43:41.79,-1072,2136,-16320,88,78,-32,136,180,-44,-158
,4080,2015/08/20 07:43:41.80,-1272,2448,-16208,82,69,-36,136,179,-43,-157
,4081,2015/08/20 07:43:41.81,-1184,2240,-16024,86,59,-53,132,175,-43,-153
,4082,2015/08/20 07:43:41.82,-1312,2272,-16152,77,62,-61,132,173,-41,-152
,4083,2015/08/20 07:43:41.83,-952,2328,-16176,71,60,-47,141,184,-43,-162
,4084,2015/08/20 07:43:41.84,-1048,2176,-16112,62,74,-56,136,179,-43,-157
,4085,2015/08/20 07:43:41.85,-1104,2144,-16240,80,77,-50,139,180,-41,-159
,4086,2015/08/20 07:43:41.86,-1112,2248,-16288,108,73,-36,137,174,-37,-155
,4087,2015/08/20 07:43:41.87,-1208,2176,-16088,117,92,-28,135,180,-45,-157
,4088,2015/08/20 07:43:41.88,-1064,2184,-16080,121,114,-18,134,180,-46,-157
,4089,2015/08/20 07:43:41.89,-992,2368,-16136,126,144,-33,133,176,-43,-154
,4090,2015/08/20 07:43:41.90,-1272,2152,-16176,118,130,-27,137,182,-45,-159
,4091,2015/08/20 07:43:41.91,-1144,2216,-16080,122,140,-29,140,182,-42,-161
,4092,2015/08/20 07:43:41.92,-1168,2200,-16056,93,138,-28,128,170,-42,-149
,4093,2015/08/20 07:43:41.93,-1400,2320,-16072,64,157,-38,137,181,-44,-159
,4094,2015/08/20 07:43:41.94,-1080,2424,-15968,45,189,-69,133,178,-45,-155
,4095,2015/08/20 07:43:41.95,-1032,2376,-16208,8,205,-70,137,180,-43,-158
,4096,2015/08/20 07:43:41.96,-1160,2336,-16256,-25,180,-85,135,177,-42,-156
,4097,2015/08/20 07:43:41.97,-1128,2272,-16240,-12,162,-74,136,177,-41,-156
,4098,2015/08/20 07:43:41.98,-1248,2272,-16320,-18,152,-60,132,179,-47,-155
,4099,2015/08/20 07:43:41.99,-1256,2344,-16160,-6,118,-48,138,181,-43,-159
,4100,2015/08/20 07:43:42.00,-1040,2232,-16248,58,95,-47,136,179,-43,-157
,4101,2015/08/20 07:43:42.01,-1256,2312,-16120,80,79,-52,138,178,-40,-158
,4102,2015/08/20 07:43:42.02,-1008,2232,-16160,100,60,-53,135,178,-43,-156
,4103,2015/08/20 07:43:42.03,-904,2336,-16208,105,51,-48,138,176,-38,-157
,4104,2015/08/20 07:43:42.04,-1184,2344,-16184,128,40,-45,132,173,-41,-152
,4105,2015/08/20 07:43:42.05,-1024,2344,-16208,117,22,-36,133,175,-42,-154
,4106,2015/08/20 07:43:42.06,-1064,2304,-16264,137,20,-19,115,162,-47,-138
,4107,2015/08/20 07:43:42.07,-1152,2320,-16184,127,8,-5,85,132,-47,-108
,4108,2015/08/20 07:43:42.08,-952,2168,-16184,149,1,5,34,89,-55,-61
,4109,2015/08/20 07:43:42.09,-1176,2176,-16136,182,11,13,-10,47,-57,-18
,4110,2015/08/20 07:43:42.10,-1152,2344,-16328,224,-9,33,-53,11,-64,21
,4111,2015/08/20 07:43:42.11,-1200,2424,-16224,245,7,31,-71,-12,-59,41
,4112,2015/08/20 07:43:42.12,-1280,2464,-16096,244,25,41,-79,-18,-61,48
,4113,2015/08/20 07:43:42.13,-904,2264,-16192,222,55,35,-65,-7,-58,36
,4114,2015/08/20 07:43:42.14,-1056,2248,-16136,230,56,32,-45,15,-60,15
,4115,2015/08/20 07:43:42.15,-1064,2272,-16136,214,21,25,-10,44,-54,-17
,4116,2015/08/20 07:43:42.16,-1080,2160,-16128,229,37,26,9,68,-59,-38
,4117,2015/08/20 07:43:42.17,-1328,2288,-16032,252,19,41,32,84,-52,-58
,4118,2015/08/20 07:43:42.18,-1032,2160,-16160,216,64,39,43,98,-55,-70
,4119,2015/08/20 07:43:42.19,-1072,2160,-16120,219,100,35,65,112,-47,-88
,4120,2015/08/20 07:43:42.20,-1232,2352,-16104,206,124,44,73,123,-50,-98
,4121,2015/08/20 07:43:42.21,-1120,2368,-16176,191,148,28,86,131,-45,-108
,4122,2015/08/20 07:43:42.22,-1064,2304,-16320,185,170,14,84,135,-51,-109
,4123,2015/08/20 07:43:42.23,-1376,2200,-16264,195,158,13,96,138,-42,-117
,4124,2015/08/20 07:43:42.24,-1048,2184,-16192,199,156,3,102,150,-48,-126
,4125,2015/08/20 07:43:42.25,-1320,2248,-16288,186,139,4,104,146,-42,-125
,4126,2015/08/20 07:43:42.26,-1232,2360,-16256,180,124,2,100,149,-49,-124
,4127,2015/08/20 07:43:42.27,-1328,2232,-16176,177,127,15,109,149,-40,-129
,4128,2015/08/20 07:43:42.28,-1136,2160,-16272,159,120,-19,104,157,-53,-130
,4129,2015/08/20 07:43:42.29,-1184,2240,-16152,155,108,-20,115,161,-46,-138
,4130,2015/08/20 07:43:42.30,-1408,2408,-16240,165,107,-8,109,162,-53,-135
,4131,2015/08/20 07:43:42.31,-1168,2392,-16240,147,112,-32,119,163,-44,-141
,4132,2015/08/20 07:43:42.32,-1024,2232,-16152,142,96,-39,117,164,-47,-140
,4133,2015/08/20 07:43:42.33,-1408,2168,-16264,148,105,-51,115,153,-38,-134
,4134,2015/08/20 07:43:42.34,-920,2200,-16208,140,107,-44,116,162,-46,-139
,4135,2015/08/20 07:43:42.35,-1080,2296,-16184,144,102,-24,124,164,-40,-144
,4136,2015/08/20 07:43:42.36,-1064,2152,-16192,151,110,-20,120,169,-49,-144
,4137,2015/08/20 07:43:42.37,-904,2192,-16264,153,119,-13,127,170,-43,-148
,4138,2015/08/20 07:43:42.38,-1104,2096,-16272,172,101,-4,121,170,-49,-145
,4139,2015/08/20 07:43:42.39,-1200,2296,-16216,169,99,6,128,169,-41,-148
,4140,2015/08/20 07:43:42.40,-1064,2192,-16272,158,106,-3,120,168,-48,-144
,4141,2015/08/20 07:43:42.41,-1096,2208,-16232,168,91,-17,124,168,-44,-146
,4142,2015/08/20 07:43:42.42,-872,2136,-16320,155,71,-5,110,160,-50,-135
,4143,2015/08/20 07:43:42.43,-1064,2080,-16216,132,59,-8,101,141,-40,-121
,4144,2015/08/20 07:43:42.44,-1008,2144,-16352,125,56,-18,67,117,-50,-92
,4145,2015/08/20 07:43:42.45,-936,2040,-16216,98,30,-27,41,90,-49,-65
,4146,2015/08/20 07:43:42.46,-1120,2096,-16168,95,21,-27,-4,59,-63,-27
,4147,2015/08/20 07:43:42.47,-1080,2144,-16264,89,22,-10,-21,39,-60,-9
,4148,2015/08/20 07:43:42.48,-1032,2168,-16152,89,16,-5,-25,47,-72,-11
,4149,2015/08/20 07:43:42.49,-1176,2280,-16032,71,15,7,26,89,-63,-57
,4150,2015/08/20 07:43:42.50,-1232,2240,-16248,107,10,8,89,159,-70,-124
,4151,2015/08/20 07:43:42.51,-1096,2216,-16216,72,-17,4,175,230,-55,-202
,4152,2015/08/20 07:43:42.52,-784,2344,-16136,65,0,6,224,283,-59,-253
,4153,2015/08/20 07:43:42.53,-1056,2248,-16208,79,12,10,272,316,-44,-294
,4154,2015/08/20 07:43:42.54,-1024,2248,-16248,76,25,3,280,332,-52,-306
,4155,2015/08/20 07:43:42.55,-1160,2344,-16256,76,-13,-1,295,333,-38,-314
,4156,2015/08/20 07:43:42.56,-1040,2144,-16216,67,-21,-4,280,326,-46,-303
,4157,2015/08/20 07:43:42.57,-1400,2264,-16232,55,-6,-14,283,317,-34,-300
,4158,2015/08/20 07:43:42.58,-1376,2160,-16248,80,-13,-20,265,307,-42,-286
,4159,2015/08/20 07:43:42.59,-1000,2248,-16272,60,-3,-33,270,302,-32,-286
,4160,2015/08/20 07:43:42.60,-1160,2096,-16176,62,20,-34,254,296,-42,-275
,4161,2015/08/20 07:43:42.61,-1080,2184,-16120,50,9,-20,260,290,-30,-275
,4162,2015/08/20 07:43:42.62,-1320,2120,-16168,28,-3,-7,242,284,-42,-263
,4163,2015/08/20 07:43:42.63,-1360,2312,-16240,27,15,2,246,280,-34,-263
,4164,2015/08/20 07:43:42.64,-1008,2184,-16256,45,48,3,233,274,-41,-253
,4165,2015/08/20 07:43:42.65,-1040,2320,-16080,41,52,29,248,280,-32,-264
,4166,2015/08/20 07:43:42.66,-1016,2296,-16080,34,85,17,226,266,-40,-246
,4167,2015/08/20 07:43:42.67,-1256,2376,-16296,68,79,5,229,260,-31,-244
,4168,2015/08/20 07:43:42.68,-1384,2272,-16312,67,125,2,213,250,-37,-231
,4169,2015/08/20 07:43:42.69,-1048,2488,-16200,84,113,-19,218,248,-30,-233
,4170,2015/08/20 07:43:42.70,-1224,2360,-16160,110,126,-34,204,244,-40,-224
,4171,2015/08/20 07:43:42.71,-1160,2312,-16224,71,154,-81,206,240,-34,-223
,4172,2015/08/20 07:43:42.72,-800,2296,-16088,66,138,-95,189,232,-43,-210
,4173,2015/08/20 07:43:42.73,-984,2168,-16184,48,134,-107,198,227,-29,-212
,4174,2015/08/20 07:43:42.74,-1200,2152,-16216,56,113,-117,169,211,-42,-190
,4175,2015/08/20 07:43:42.75,-1112,2272,-16208,21,125,-124,178,210,-32,-194
,4176,2015/08/20 07:43:42.76,-1016,2232,-16216,-5,116,-147,163,200,-37,-181
,4177,2015/08/20 07:43:42.77,-1120,2248,-16192,-33,143,-158,179,199,-20,-189
,4178,2015/08/20 07:43:42.78,-1008,2224,-16272,-60,95,-142,168,199,-31,-183
,4179,2015/08/20 07:43:42.79,-1040,2336,-16352,-61,100,-125,180,202,-22,-191
,4180,2015/08/20 07:43:42.80,-1136,2144,-16248,-48,41,-106,164,204,-40,-184
,4181,2015/08/20 07:43:42.81,-936,2448,-16216,-30,14,-83,172,202,-30,-187
,4182,2015/08/20 07:43:42.82,-1024,2344,-16264,-13,-5,-57,160,199,-39,-179
,4183,2015/08/20 07:43:42.83,-832,2160,-16176,16,-6,-37,172,198,-26,-185
,4184,2015/08/20 07:43:42.84,-1160,2240,-16256,58,-29,-20,162,198,-36,-180
,4185,2015/08/20 07:43:42.85,-1120,2280,-16168,87,-14,-18,169,198,-29,-183
,4186,2015/08/20 07:43:42.86,-1200,2360,-16152,96,-26,-18,155,198,-43,-176
,4187,2015/08/20 07:43:42.87,-752,2400,-16192,118,-22,-4,164,198,-34,-181
,4188,2015/08/20 07:43:42.88,-1024,2144,-16232,118,-16,8,152,194,-42,-173
,4189,2015/08/20 07:43:42.89,-1240,2296,-16320,137,-28,15,163,195,-32,-179
,4190,2015/08/20 07:43:42.90,-944,2296,-16288,121,-26,25,150,194,-44,-172
,4191,2015/08/20 07:43:42.91,-896,2144,-16288,114,-16,14,156,193,-37,-174
,4192,2015/08/20 07:43:42.92,-1248,2320,-16304,102,-13,8,143,192,-49,-167
,4193,2015/08/20 07:43:42.93,-1072,2200,-16192,119,3,-17,152,190,-38,-171
,4194,2015/08/20 07:43:42.94,-1152,2344,-16192,91,34,-24,143,191,-48,-167
,4195,2015/08/20 07:43:42.95,-1192,2280,-16352,67,47,-54,155,190,-35,-172
,4196,2015/08/20 07:43:42.96,-1160,2224,-16104,37,48,-87,144,190,-46,-167
,4197,2015/08/20 07:43:42.97,-1296,2112,-16216,58,28,-72,152,189,-37,-170
,4198,2015/08/20 07:43:42.98,-1096,2288,-16160,60,24,-68,141,188,-47,-164
,4199,2015/08/20 07:43:42.99,-960,2128,-16136,74,48,-68,150,189,-39,-169
,4200,2015/08/20 07:43:43.00,-1208,2136,-16168,65,76,-96,141,190,-49,-165
,4201,2015/08/20 07:43:43.01,-1144,2216,-15944,21,103,-86,152,189,-37,-170
,4202,2015/08/20 07:43:43.02,-1080,2144,-16216,18,131,-90,142,187,-45,-164
,4203,2015/08/20 07:43:43.03,-1144,2272,-16176,-18,158,-93,150,186,-36,-168
,4204,2015/08/20 07:43:43.04,-1064,2176,-16128,-27,137,-82,138,186,-48,-162
,4205,2015/08/20 07:43:43.05,-1160,2200,-16328,-51,128,-72,148,184,-36,-166
,4206,2015/08/20 07:43:43.06,-872,2184,-16296,-58,119,-74,148,195,-47,-171
,4207,2015/08/20 07:43:43.07,-992,2280,-16272,-52,69,-69,147,186,-39,-166
,4208,2015/08/20 07:43:43.08,-1496,2384,-16248,-41,65,-68,133,185,-52,-159
,4209,2015/08/20 07:43:43.09,-1000,2416,-16088,-26,59,-62,138,175,-37,-156
,4210,2015/08/20 07:43:43.10,-1256,2264,-16168,-24,56,-58,134,184,-50,-159
,4211,2015/08/20 07:43:43.11,-1080,2176,-16312,-18,53,-47,142,182,-40,-162
,4212,2015/08/20 07:43:43.12,-1144,2344,-16224,6,68,-30,130,177,-47,-153
,4213,2015/08/20 07:43:43.13,-888,2232,-16320,24,77,0,137,176,-39,-156
,4214,2015/08/20 07:43:43.14,-1144,2144,-16168,40,92,14,128,175,-47,-151
,4215,2015/08/20 07:43:43.15,-1328,2456,-15984,51,95,28,128,164,-36,-146
,4216,2015/08/20 07:43:43.16,-840,2376,-16216,60,91,45,129,173,-44,-151
,4217,2015/08/20 07:43:43.17,-1016,2456,-16016,78,116,30,140,175,-35,-157
,4218,2015/08/20 07:43:43.18,-1056,2456,-16072,92,84,23,135,176,-41,-155
,4219,2015/08/20 07:43:43.19,-1144,2240,-16224,80,113,8,137,173,-36,-155
,4220,2015/08/20 07:43:43.20,-1192,2536,-16336,85,94,-19,129,175,-46,-152
,4221,2015/08/20 07:43:43.21,-1048,2472,-16232,95,93,-21,138,176,-38,-157
,4222,2015/08/20 07:43:43.22,-976,2264,-16216,87,83,-34,131,174,-43,-152
,4223,2015/08/20 07:43:43.23,-864,2320,-16152,93,72,-46,140,176,-36,-158
,4224,2015/08/20 07:43:43.24,-1144,2384,-16104,108,54,-88,137,182,-45,-159
,4225,2015/08/20 07:43:43.25,-1240,2408,-16184,120,59,-81,146,185,-39,-165
,4226,2015/08/20 07:43:43.26,-1064,2160,-16208,111,55,-89,137,182,-45,-159
,4227,2015/08/20 07:43:43.27,-976,2312,-16240,119,49,-89,141,178,-37,-159
,4228,2015/08/20 07:43:43.28,-800,2264,-16320,136,42,-98,134,178,-44,-156
,4229,2015/08/20 07:43:43.29,-1224,2144,-16472,130,38,-74,139,180,-41,-159
,4230,2015/08/20 07:43:43.30,-1080,2200,-16216,141,60,-89,134,182,-48,-158
,4231,2015/08/20 07:43:43.31,-1344,2264,-16296,138,41,-79,143,182,-39,-162
,4232,2015/08/20 07:43:43.32,-1008,2128,-16168,145,38,-80,138,183,-45,-160
,4233,2015/08/20 07:43:43.33,-1112,2160,-16064,145,47,-51,143,184,-41,-163
,4234,2015/08/20 07:43:43.34,-960,2328,-16152,120,11,-42,136,183,-47,-159
,4235,2015/08/20 07:43:43.35,-1112,2320,-16168,131,27,-39,143,184,-41,-163
,4236,2015/08/20 07:43:43.36,-1200,2128,-16320,125,27,-23,136,182,-46,-159
,4237,2015/08/20 07:43:43.37,-864,2328,-16160,120,28,-19,140,180,-40,-160
,4238,2015/08/20 07:43:43.38,-1160,2216,-16120,106,39,-12,122,168,-46,-145
,4239,2015/08/20 07:43:43.39,-1416,2168,-16160,87,28,4,98,141,-43,-119
,4240,2015/08/20 07:43:43.40,-1056,2168,-16128,95,36,15,55,106,-51,-80
,4241,2015/08/20 07:43:43.41,-1288,2336,-16136,97,23,14,19,71,-52,-45
,4242,2015/08/20 07:43:43.42,-1288,2280,-16240,100,14,14,-21,37,-58,-8
,4243,2015/08/20 07:43:43.43,-1328,2224,-16304,118,36,14,-44,12,-56,16
,4244,2015/08/20 07:43:43.44,-1120,2320,-16400,120,65,2,-66,-6,-60,36
,4245,2015/08/20 07:43:43.45,-1224,2336,-16200,144,82,-13,-74,-13,-61,43
,4246,2015/08/20 07:43:43.46,-1152,2208,-16184,164,98,-30,-80,-9,-71,44
,4247,2015/08/20 07:43:43.47,-1280,2280,-16232,174,123,-18,-56,14,-70,21
,4248,2015/08/20 07:43:43.48,-1008,2128,-16088,196,143,-29,-45,25,-70,10
,4249,2015/08/20 07:43:43.49,-1296,2232,-16112,201,184,-40,-13,53,-66,-20
,4250,2015/08/20 07:43:43.50,-1168,2272,-16136,206,243,-59,12,73,-61,-42
,4251,2015/08/20 07:43:43.51,-1168,2272,-16184,235,235,-37,39,97,-58,-68
,4252,2015/08/20 07:43:43.52,-1104,2152,-16072,244,212,-38,53,109,-56,-81
,4253,2015/08/20 07:43:43.53,-1024,2208,-16160,236,203,-27,69,125,-56,-97
,4254,2015/08/20 07:43:43.54,-952,2216,-16256,231,203,-39,77,136,-59,-106
,4255,2015/08/20 07:43:43.55,-1152,2216,-16208,214,213,-32,90,144,-54,-117
,4256,2015/08/20 07:43:43.56,-912,2224,-16224,196,205,-35,83,139,-56,-111
,4257,2015/08/20 07:43:43.57,-1016,2176,-16296,162,204,-46,89,138,-49,-113
,4258,2015/08/20 07:43:43.58,-1344,2272,-16256,150,177,-15,81,129,-48,-105
,4259,2015/08/20 07:43:43.59,-992,2208,-16384,148,140,-2,83,128,-45,-105
,4260,2015/08/20 07:43:43.60,-944,2240,-16304,157,96,12,84,130,-46,-107
,4261,2015/08/20 07:43:43.61,-936,2360,-16152,175,61,21,92,136,-44,-114
,4262,2015/08/20 07:43:43.62,-1240,2152,-16264,194,46,33,98,145,-47,-121
,4263,2015/08/20 07:43:43.63,-1192,2272,-16160,230,47,34,109,151,-42,-130
,4264,2015/08/20 07:43:43.64,-1000,2096,-16320,263,34,36,117,156,-39,-136
,4265,2015/08/20 07:43:43.65,-1160,2168,-16160,273,24,23,121,157,-36,-139
,4266,2015/08/20 07:43:43.66,-1080,2216,-16240,292,16,15,121,160,-39,-140
,4267,2015/08/20 07:43:43.67,-1072,2192,-16208,322,18,19,123,162,-39,-142
,4268,2015/08/20 07:43:43.68,-1192,2104,-16344,335,8,46,128,165,-37,-146
,4269,2015/08/20 07:43:43.69,-1048,2176,-16384,329,-15,55,129,166,-37,-147
,4270,2015/08/20 07:43:43.70,-1080,2080,-16384,311,-18,71,130,167,-37,-148
,4271,2015/08/20 07:43:43.71,-1008,2200,-16288,280,-2,61,132,171,-39,-151
,4272,2015/08/20 07:43:43.72,-1344,2152,-16208,263,12,77,136,174,-38,-155
,4273,2015/08/20 07:43:43.73,-1304,2040,-16176,224,31,66,137,172,-35,-154
,4274,2015/08/20 07:43:43.74,-1144,2008,-16160,221,51,81,138,170,-32,-154
,4275,2015/08/20 07:43:43.75,-1432,2144,-16088,179,44,69,133,168,-35,-150
,4276,2015/08/20 07:43:43.76,-960,1936,-16192,181,63,101,131,166,-35,-148
,4277,2015/08/20 07:43:43.77,-1184,2184,-16032,189,75,101,127,164,-37,-145
,4278,2015/08/20 07:43:43.78,-928,2064,-16136,180,93,89,131,168,-37,-149
,4279,2015/08/20 07:43:43.79,-960,2168,-16000,167,89,87,132,170,-38,-151
,4280,2015/08/20 07:43:43.80,-920,2144,-16152,140,130,55,133,171,-38,-152
,4281,2015/08/20 07:43:43.81,-800,2184,-16184,94,141,20,129,169,-40,-149
,4282,2015/08/20 07:43:43.82,-1160,2104,-16224,84,144,-14,133,171,-38,-152
,4283,2015/08/20 07:43:43.83,-944,2232,-16352,84,156,-15,130,174,-44,-152
,4284,2015/08/20 07:43:43.84,-1000,2280,-16296,77,119,-34,135,174,-39,-154
,4285,2015/08/20 07:43:43.85,-944,2088,-16312,68,99,-57,134,174,-40,-154
,4286,2015/08/20 07:43:43.86,-1104,2200,-16184,80,56,-37,139,176,-37,-157
,4287,2015/08/20 07:43:43.87,-1056,2008,-16248,71,12,-39,136,175,-39,-155
,4288,2015/08/20 07:43:43.88,-944,2128,-16344,58,3,-42,143,179,-36,-161
,4289,2015/08/20 07:43:43.89,-1080,2200,-16256,64,-21,-35,130,167,-37,-148
,4290,2015/08/20 07:43:43.90,-944,2128,-16240,75,0,-30,134,169,-35,-151
,4291,2015/08/20 07:43:43.91,-1152,2104,-16128,106,3,-18,134,166,-32,-150
,4292,2015/08/20 07:43:43.92,-1256,2344,-16288,119,0,-2,137,175,-38,-156
,4293,2015/08/20 07:43:43.93,-1240,2184,-16216,133,15,16,129,172,-43,-150
,4294,2015/08/20 07:43:43.94,-960,1968,-16128,153,26,36,134,175,-41,-154
,4295,2015/08/20 07:43:43.95,-1112,2160,-16320,181,9,35,134,176,-42,-155
,4296,2015/08/20 07:43:43.96,-1176,2168,-16168,186,25,53,141,178,-37,-159
,4297,2015/08/20 07:43:43.97,-1288,2192,-16152,179,37,56,129,171,-42,-150
,4298,2015/08/20 07:43:43.98,-1040,2104,-16288,168,27,73,140,176,-36,-158
,4299,2015/08/20 07:43:43.99,-1120,2048,-16176,169,31,68,132,170,-38,-151
,4300,2015/08/20 07:43:44.00,-1112,2160,-16160,159,53,42,131,167,-36,-149
,4301,2015/08/20 07:43:44.01,-1176,2048,-16256,127,43,33,125,164,-39,-144
,4302,2015/08/20 07:43:44.02,-1192,2056,-16256,122,40,17,133,168,-35,-150
,4303,2015/08/20 07:43:44.03,-1280,2184,-16176,107,56,2,129,171,-42,-150
,4304,2015/08/20 07:43:44.04,-1064,2176,-16176,113,41,-25,146,180,-34,-163
,4305,2015/08/20 07:43:44.05,-1112,2048,-16360,97,30,-32,169,203,-34,-186
,4306,2015/08/20 07:43:44.06,-760,2152,-16136,92,15,-47,217,238,-21,-227
,4307,2015/08/20 07:43:44.07,-1048,2088,-16304,83,17,-75,251,270,-19,-260
,4308,2015/08/20 07:43:44.08,-1112,2136,-16232,58,22,-84,286,293,-7,-289
,4309,2015/08/20 07:43:44.09,-1136,2000,-16264,79,5,-111,292,306,-14,-299
,4310,2015/08/20 07:43:44.10,-1136,2040,-16232,61,23,-117,298,306,-8,-302
,4311,2015/08/20 07:43:44.11,-1176,2176,-16216,88,24,-125,280,296,-16,-288
,4312,2015/08/20 07:43:44.12,-1184,2064,-16232,71,-8,-124,279,288,-9,-283
,4313,2015/08/20 07:43:44.13,-1000,2048,-16152,73,8,-117,261,279,-18,-270
,4314,2015/08/20 07:43:44.14,-1080,2040,-16240,84,0,-108,257,272,-15,-264
,4315,2015/08/20 07:43:44.15,-1120,2040,-16128,67,30,-99,239,260,-21,-249
,4316,2015/08/20 07:43:44.16,-1104,1984,-16320,73,3,-72,239,253,-14,-246
,4317,2015/08/20 07:43:44.17,-1264,2112,-16336,57,34,-41,224,244,-20,-234
,4318,2015/08/20 07:43:44.18,-1128,2056,-16264,48,28,-4,222,239,-17,-230
,4319,2015/08/20 07:43:44.19,-1120,2136,-16200,25,38,36,205,235,-30,-220
,4320,2015/08/20 07:43:44.20,-1176,1920,-16208,17,46,57,206,230,-24,-218
,4321,2015/08/20 07:43:44.21,-976,2088,-16232,28,34,76,191,224,-33,-207
,4322,2015/08/20 07:43:44.22,-1040,2040,-16264,20,63,88,195,219,-24,-207
,4323,2015/08/20 07:43:44.23,-1056,2136,-16360,30,66,91,185,216,-31,-200
,4324,2015/08/20 07:43:44.24,-840,2216,-16272,58,81,85,192,213,-21,-202
,4325,2015/08/20 07:43:44.25,-1272,2232,-16440,51,53,61,179,211,-32,-195
,4326,2015/08/20 07:43:44.26,-1360,2056,-16272,64,80,13,185,211,-26,-198
,4327,2015/08/20 07:43:44.27,-1320,2104,-16240,67,54,-2,176,210,-34,-193
,4328,2015/08/20 07:43:44.28,-1256,2208,-16136,84,62,-43,184,209,-25,-196
,4329,2015/08/20 07:43:44.29,-1312,2200,-16176,89,89,-88,177,212,-35,-194
,4330,2015/08/20 07:43:44.30,-1120,2288,-16304,75,110,-123,173,201,-28,-187
,4331,2015/08/20 07:43:44.31,-984,2088,-16272,65,79,-133,161,198,-37,-179
,4332,2015/08/20 07:43:44.32,-1072,1952,-16304,45,61,-135,170,191,-21,-180
,4333,2015/08/20 07:43:44.33,-1368,1992,-16168,36,53,-127,160,195,-35,-177
,4334,2015/08/20 07:43:44.34,-928,2144,-16128,0,81,-118,171,196,-25,-183
,4335,2015/08/20 07:43:44.35,-1032,2248,-16136,-54,131,-116,161,196,-35,-178
,4336,2015/08/20 07:43:44.36,-1240,2176,-16128,-94,153,-83,168,194,-26,-181
,4337,2015/08/20 07:43:44.37,-1208,2208,-16136,-121,185,-64,156,194,-38,-175
,4338,2015/08/20 07:43:44.38,-1024,2120,-16088,-121,168,-57,155,184,-29,-169
,4339,2015/08/20 07:43:44.39,-1064,2144,-16152,-131,124,-36,153,195,-42,-174
,4340,2015/08/20 07:43:44.40,-928,2312,-16304,-106,123,-33,164,196,-32,-180
,4341,2015/08/20 07:43:44.41,-1080,2160,-16264,-61,75,-36,156,197,-41,-176
,4342,2015/08/20 07:43:44.42,-1144,2408,-16352,-22,51,-44,163,197,-34,-180
,4343,2015/08/20 07:43:44.43,-1024,2152,-16232,19,30,-74,150,196,-46,-173
,4344,2015/08/20 07:43:44.44,-1120,2232,-16200,58,19,-107,158,194,-36,-176
,4345,2015/08/20 07:43:44.45,-1224,2160,-16232,80,-8,-124,146,190,-44,-168
,4346,2015/08/20 07:43:44.46,-896,2192,-16296,101,-32,-130,157,190,-33,-173
,4347,2015/08/20 07:43:44.47,-1040,2040,-16352,141,-40,-151,147,190,-43,-168
,4348,2015/08/20 07:43:44.48,-1288,2136,-16240,171,-35,-139,153,188,-35,-170
,4349,2015/08/20 07:43:44.49,-1032,2104,-16168,180,-55,-119,138,183,-45,-160
,4350,2015/08/20 07:43:44.50,-1176,2120,-16264,195,-39,-83,148,184,-36,-166
,4351,2015/08/20 07:43:44.51,-1112,2160,-16232,185,-33,-69,140,186,-46,-163
,4352,2015/08/20 07:43:44.52,-1240,2160,-16216,176,-23,-42,149,185,-36,-167
,4353,2015/08/20 07:43:44.53,-1200,2104,-16208,142,-12,-23,139,184,-45,-161
,4354,2015/08/20 07:43:44.54,-1144,2152,-16200,118,54,-7,148,183,-35,-165
,4355,2015/08/20 07:43:44.55,-904,2080,-16128,110,67,20,139,182,-43,-160
,4356,2015/08/20 07:43:44.56,-1112,2152,-16112,87,85,38,148,180,-32,-164
,4357,2015/08/20 07:43:44.57,-1136,2080,-16336,98,87,62,137,181,-44,-159
,4358,2015/08/20 07:43:44.58,-1120,2008,-16320,110,67,84,148,182,-34,-165
,4359,2015/08/20 07:43:44.59,-1248,2104,-16088,115,97,91,137,181,-44,-159
,4360,2015/08/20 07:43:44.60,-1136,2080,-15976,103,132,62,146,180,-34,-163
,4361,2015/08/20 07:43:44.61,-928,2216,-16232,49,157,10,131,178,-47,-154
,4362,2015/08/20 07:43:44.62,-1160,2216,-16192,18,154,-33,139,173,-34,-156
,4363,2015/08/20 07:43:44.63,-1184,2112,-16392,9,124,-70,130,174,-44,-152
,4364,2015/08/20 07:43:44.64,-1072,2096,-16256,-10,112,-86,144,180,-36,-162
,4365,2015/08/20 07:43:44.65,-1288,2024,-16344,-18,58,-110,134,181,-47,-157
,4366,2015/08/20 07:43:44.66,-992,2112,-16200,-23,62,-126,140,180,-40,-160
,4367,2015/08/20 07:43:44.67,-936,2104,-16352,-4,32,-136,129,177,-48,-153
,4368,2015/08/20 07:43:44.68,-1016,2144,-16248,-16,31,-131,143,177,-34,-160
,4369,2015/08/20 07:43:44.69,-1232,2208,-16112,-44,41,-127,136,179,-43,-157
,4370,2015/08/20 07:43:44.70,-1096,1944,-16304,-46,21,-111,151,189,-38,-170
,4371,2015/08/20 07:43:44.71,-1000,2008,-16088,-29,15,-80,131,179,-48,-155
,4372,2015/08/20 07:43:44.72,-1072,2112,-16120,-31,36,-64,142,179,-37,-160
,4373,2015/08/20 07:43:44.73,-1304,1976,-16184,-6,46,-57,134,175,-41,-154
,4374,2015/08/20 07:43:44.74,-1056,2160,-16360,11,57,-13,144,181,-37,-162
,4375,2015/08/20 07:43:44.75,-1184,2176,-16160,28,85,9,136,181,-45,-158
,4376,2015/08/20 07:43:44.76,-808,2048,-16248,33,67,72,146,180,-34,-163
,4377,2015/08/20 07:43:44.77,-1032,2304,-16336,36,110,121,133,177,-44,-155
,4378,2015/08/20 07:43:44.78,-1328,2040,-16248,65,97,177,141,176,-35,-158
,4379,2015/08/20 07:43:44.79,-1048,2192,-16168,80,86,217,122,164,-42,-143
,4380,2015/08/20 07:43:44.80,-1064,2176,-16136,70,69,197,140,176,-36,-158
,4381,2015/08/20 07:43:44.81,-888,2000,-16392,65,71,161,129,178,-49,-153
,4382,2015/08/20 07:43:44.82,-936,2312,-16224,43,57,132,144,183,-39,-163
,4383,2015/08/20 07:43:44.83,-952,2192,-16192,22,40,155,132,177,-45,-154
,4384,2015/08/20 07:43:44.84,-1256,2304,-16232,19,44,117,138,174,-36,-156
,4385,2015/08/20 07:43:44.85,-888,2216,-16016,6,22,98,125,172,-47,-148
,4386,2015/08/20 07:43:44.86,-1128,2288,-16232,10,25,97,136,174,-38,-155
,4387,2015/08/20 07:43:44.87,-1064,2152,-16304,39,18,76,128,177,-49,-152
,4388,2015/08/20 07:43:44.88,-1184,2280,-16408,41,-7,54,137,178,-41,-157
,4389,2015/08/20 07:43:44.89,-1056,2192,-16224,55,-19,11,128,178,-50,-153
,4390,2015/08/20 07:43:44.90,-816,2048,-16232,60,-4,-11,138,179,-41,-158
,4391,2015/08/20 07:43:44.91,-1224,2104,-16040,61,3,-39,129,177,-48,-153
,4392,2015/08/20 07:43:44.92,-1152,2120,-16072,54,24,-47,135,173,-38,-154
,4393,2015/08/20 07:43:44.93,-1280,2032,-16192,45,33,4,123,167,-44,-145
,4394,2015/08/20 07:43:44.94,-808,2208,-16248,23,55,4,128,165,-37,-146
,4395,2015/08/20 07:43:44.95,-984,2144,-16152,39,55,20,121,165,-44,-143
,4396,2015/08/20 07:43:44.96,-1184,2192,-16208,65,59,2,131,170,-39,-150
,4397,2015/08/20 07:43:44.97,-1272,2240,-16408,86,87,7,126,175,-49,-150
,4398,2015/08/20 07:43:44.98,-1200,2176,-16224,105,59,5,133,173,-40,-153
,4399,2015/08/20 07:43:44.99,-1104,2296,-16216,140,50,-16,120,169,-49,-144
,4400,2015/08/20 07:43:45.00,-1008,2248,-16096,139,68,-7,122,166,-44,-144
,4401,2015/08/20 07:43:45.01,-1016,2240,-16080,147,36,-34,116,168,-52,-142
,4402,2015/08/20 07:43:45.02,-1096,2192,-16248,108,49,-58,127,170,-43,-148
,4403,2015/08/20 07:43:45.03,-1064,2136,-16312,118,61,-90,121,169,-48,-145
,4404,2015/08/20 07:43:45.04,-1080,2240,-16304,72,45,-71,130,168,-38,-149
,4405,2015/08/20 07:43:45.05,-1008,2000,-16072,45,73,-90,124,171,-47,-147
,4406,2015/08/20 07:43:45.06,-992,2104,-16264,86,74,-81,137,177,-40,-157
,4407,2015/08/20 07:43:45.07,-1064,2112,-16272,110,64,-82,134,182,-48,-158
,4408,2015/08/20 07:43:45.08,-1040,2000,-16264,151,46,-109,141,182,-41,-161
,4409,2015/08/20 07:43:45.09,-1008,2120,-16112,169,64,-116,130,180,-50,-155
,4410,2015/08/20 07:43:45.10,-1160,2216,-16248,140,117,-136,136,180,-44,-158
,4411,2015/08/20 07:43:45.11,-1104,2008,-16152,94,149,-128,135,190,-55,-162
,4412,2015/08/20 07:43:45.12,-1128,2160,-16216,124,141,-99,136,184,-48,-160
,4413,2015/08/20 07:43:45.13,-1120,2000,-16232,119,133,-89,132,185,-53,-158
,4414,2015/08/20 07:43:45.14,-1136,2016,-15992,132,142,-63,140,182,-42,-161
,4415,2015/08/20 07:43:45.15,-896,2136,-16200,113,157,-61,133,186,-53,-159
,4416,2015/08/20 07:43:45.16,-960,2248,-16192,74,154,-45,140,184,-44,-162
,4417,2015/08/20 07:43:45.17,-952,2112,-16088,34,156,-59,136,186,-50,-161
,4418,2015/08/20 07:43:45.18,-1000,2112,-16304,2,153,-83,141,187,-46,-164
,4419,2015/08/20 07:43:45.19,-1104,2280,-16408,-32,142,-96,133,185,-52,-159
,4420,2015/08/20 07:43:45.20,-912,2400,-16288,-101,118,-71,125,168,-43,-146
,4421,2015/08/20 07:43:45.21,-1136,2184,-16288,-125,73,-76,126,173,-47,-149
,4422,2015/08/20 07:43:45.22,-1128,2136,-16328,-84,47,-64,128,171,-43,-149
,4423,2015/08/20 07:43:45.23,-920,2232,-16248,-39,18,-96,131,179,-48,-155
,4424,2015/08/20 07:43:45.24,-1096,2120,-16264,-10,-7,-113,136,179,-43,-157
,4425,2015/08/20 07:43:45.25,-1272,2136,-16312,38,2,-122,118,169,-51,-143
,4426,2015/08/20 07:43:45.26,-824,2080,-16256,77,-3,-84,84,132,-48,-108
,4427,2015/08/20 07:43:45.27,-1016,1984,-16328,105,-16,-73,31,82,-51,-56
,4428,2015/08/20 07:43:45.28,-1080,2120,-16288,109,-30,-54,-12,39,-51,-13
,4429,2015/08/20 07:43:45.29,-1144,2128,-16224,126,-35,-9,-51,7,-58,22
,4430,2015/08/20 07:43:45.30,-984,2160,-16352,88,-39,13,-76,-18,-58,47
,4431,2015/08/20 07:43:45.31,-1104,2064,-16192,85,-52,56,-90,-30,-60,60
,4432,2015/08/20 07:43:45.32,-1024,2168,-16160,86,-12,86,-91,-35,-56,63
,4433,2015/08/20 07:43:45.33,-1112,2200,-16192,78,-1,123,-90,-34,-56,62
,4434,2015/08/20 07:43:45.34,-1272,2208,-16104,40,43,142,-77,-23,-54,50
,4435,2015/08/20 07:43:45.35,-1168,2264,-16000,45,93,138,-58,0,-58,29
,4436,2015/08/20 07:43:45.36,-1104,2200,-16216,8,112,138,-26,32,-58,-3
,4437,2015/08/20 07:43:45.37,-1120,2080,-16072,-15,151,155,4,62,-58,-33
,4438,2015/08/20 07:43:45.38,-1000,2128,-15984,-17,187,182,28,82,-54,-55
,4439,2015/08/20 07:43:45.39,-1120,2192,-16232,-8,207,196,43,97,-54,-70
,4440,2015/08/20 07:43:45.40,-1184,2272,-16168,22,204,189,58,109,-51,-83
,4441,2015/08/20 07:43:45.41,-1224,2376,-16056,46,222,182,66,119,-53,-92
,4442,2015/08/20 07:43:45.42,-1136,2296,-16208,63,217,130,80,131,-51,-105
,4443,2015/08/20 07:43:45.43,-1104,2352,-16304,53,197,70,88,140,-52,-114
,4444,2015/08/20 07:43:45.44,-960,2312,-16272,43,182,-4,93,143,-50,-118
,4445,2015/08/20 07:43:45.45,-1368,2288,-16192,64,167,-32,94,142,-48,-118
,4446,2015/08/20 07:43:45.46,-984,2304,-16328,96,145,-76,99,143,-44,-121
,4447,2015/08/20 07:43:45.47,-1192,2288,-16288,150,123,-97,104,146,-42,-125
,4448,2015/08/20 07:43:45.48,-1072,2416,-16288,184,89,-133,109,151,-42,-130
,4449,2015/08/20 07:43:45.49,-960,2176,-16264,193,57,-163,112,155,-43,-133
,4450,2015/08/20 07:43:45.50,-1312,2104,-16160,191,51,-164,115,157,-42,-136
,4451,2015/08/20 07:43:45.51,-1296,2176,-16232,182,56,-159,117,164,-47,-140
,4452,2015/08/20 07:43:45.52,-1056,2232,-16040,198,67,-162,128,177,-49,-152
,4453,2015/08/20 07:43:45.53,-1264,2192,-16288,205,63,-153,126,171,-45,-148
,4454,2015/08/20 07:43:45.54,-1208,2048,-16296,204,81,-115,126,169,-43,-147
,4455,2015/08/20 07:43:45.55,-1040,2200,-16112,207,88,-107,128,165,-37,-146
,4456,2015/08/20 07:43:45.56,-1008,2080,-16320,205,110,-102,126,168,-42,-147
,4457,2015/08/20 07:43:45.57,-1288,2200,-16328,198,89,-95,129,173,-44,-151
,4458,2015/08/20 07:43:45.58,-840,2192,-16208,206,92,-100,129,176,-47,-152
,4459,2015/08/20 07:43:45.59,-1080,2056,-16264,159,89,-115,132,178,-46,-155
,4460,2015/08/20 07:43:45.60,-1048,2104,-16240,151,90,-95,130,175,-45,-152
,4461,2015/08/20 07:43:45.61,-1144,2112,-16224,136,81,-84,123,163,-40,-143
,4462,2015/08/20 07:43:45.62,-1152,2008,-16320,118,104,-67,130,174,-44,-152
,4463,2015/08/20 07:43:45.63,-992,2008,-16136,89,95,-36,129,174,-45,-151
,4464,2015/08/20 07:43:45.64,-1184,1920,-16336,61,82,-18,127,173,-46,-150
,4465,2015/08/20 07:43:45.65,-1264,2024,-16176,66,64,-5,124,164,-40,-144
,4466,2015/08/20 07:43:45.66,-1376,2208,-16208,59,55,2,119,163,-44,-141
,4467,2015/08/20 07:43:45.67,-888,2144,-16440,36,-1,2,121,164,-43,-142
,4468,2015/08/20 07:43:45.68,-1264,2248,-16256,46,16,-8,113,159,-46,-136
,4469,2015/08/20 07:43:45.69,-760,2280,-16104,71,8,-45,108,153,-45,-130
,4470,2015/08/20 07:43:45.70,-1176,2168,-16256,62,23,-51,101,152,-51,-126
,4471,2015/08/20 07:43:45.71,-1112,2192,-16288,58,35,-97,120,170,-50,-145
,4472,2015/08/20 07:43:45.72,-1232,2048,-16224,50,39,-88,155,210,-55,-182
,4473,2015/08/20 07:43:45.73,-1104,2248,-16160,65,20,-72,209,256,-47,-232
,4474,2015/08/20 07:43:45.74,-1160,2152,-16224,53,53,-61,248,296,-48,-272
,4475,2015/08/20 07:43:45.75,-1104,2200,-16168,94,63,-33,278,320,-42,-299
,4476,2015/08/20 07:43:45.76,-888,2224,-16120,115,84,-34,285,328,-43,-306
,4477,2015/08/20 07:43:45.77,-1104,1952,-15968,217,139,-14,293,329,-36,-311
,4478,2015/08/20 07:43:45.78,-992,2184,-16128,267,134,-21,287,322,-35,-304
,4479,2015/08/20 07:43:45.79,-1056,2352,-16232,215,130,-4,283,311,-28,-297
,4480,2015/08/20 07:43:45.80,-1080,2120,-16224,163,128,-15,264,298,-34,-281
,4481,2015/08/20 07:43:45.81,-856,2272,-16096,115,86,-16,258,288,-30,-273
,4482,2015/08/20 07:43:45.82,-936,2056,-16208,106,66,-11,243,279,-36,-261
,4483,2015/08/20 07:43:45.83,-1240,2128,-16192,94,96,-8,241,272,-31,-256
,4484,2015/08/20 07:43:45.84,-1064,2104,-16360,105,92,-36,228,266,-38,-247
,4485,2015/08/20 07:43:45.85,-1128,2168,-16240,86,84,-37,226,261,-35,-243
,4486,2015/08/20 07:43:45.86,-1168,2192,-16464,101,95,-57,213,253,-40,-233
,4487,2015/08/20 07:43:45.87,-944,2176,-16352,116,74,-35,212,247,-35,-229
,4488,2015/08/20 07:43:45.88,-1040,2160,-16264,144,84,-56,200,240,-40,-220
,4489,2015/08/20 07:43:45.89,-904,2248,-16288,152,97,-59,204,238,-34,-221
,4490,2015/08/20 07:43:45.90,-992,2120,-16264,141,116,-91,195,233,-38,-214
,4491,2015/08/20 07:43:45.91,-1104,2112,-16192,157,118,-99,199,229,-30,-214
,4492,2015/08/20 07:43:45.92,-1128,2048,-16168,125,123,-94,187,223,-36,-205
,4493,2015/08/20 07:43:45.93,-1048,2000,-16240,140,104,-71,195,226,-31,-210
,4494,2015/08/20 07:43:45.94,-1208,2080,-16136,149,114,-65,168,203,-35,-185
,4495,2015/08/20 07:43:45.95,-864,2088,-16136,151,135,-61,155,184,-29,-169
,4496,2015/08/20 07:43:45.96,-856,2112,-16184,108,152,-68,142,173,-31,-157
,4497,2015/08/20 07:43:45.97,-1192,2152,-16208,81,183,-80,147,177,-30,-162
,4498,2015/08/20 07:43:45.98,-1120,2128,-16248,55,173,-80,142,180,-38,-161
,4499,2015/08/20 07:43:45.99,-960,2280,-16248,56,153,-86,151,181,-30,-166
,4500,2015/08/20 07:43:46.00,-856,2080,-16296,50,96,-96,143,179,-36,-161
,4501,2015/08/20 07:43:46.01,-1192,2288,-16312,43,92,-106,151,178,-27,-164
,4502,2015/08/20 07:43:46.02,-1240,2144,-16264,64,40,-101,135,169,-34,-152
,4503,2015/08/20 07:43:46.03,-632,2152,-16256,94,30,-106,155,183,-28,-169
,4504,2015/08/20 07:43:46.04,-872,2128,-16344,92,6,-106,146,183,-37,-164
,4505,2015/08/20 07:43:46.05,-1032,2008,-16248,112,-18,-101,152,183,-31,-167
,4506,2015/08/20 07:43:46.06,-984,2128,-16224,118,-45,-75,139,180,-41,-159
,4507,2015/08/20 07:43:46.07,-1096,2064,-16376,154,-55,-47,148,184,-36,-166
,4508,2015/08/20 07:43:46.08,-1160,2000,-16432,164,-69,-29,139,183,-44,-161
,4509,2015/08/20 07:43:46.09,-1160,2080,-16200,138,-73,4,151,182,-31,-166
,4510,2015/08/20 07:43:46.10,-1008,1976,-16152,144,-47,33,142,181,-39,-161
,4511,2015/08/20 07:43:46.11,-1152,2112,-16200,140,-36,66,139,170,-31,-154
,4512,2015/08/20 07:43:46.12,-1080,2200,-16232,122,-34,54,107,146,-39,-126
,4513,2015/08/20 07:43:46.13,-912,2272,-16096,109,-1,52,101,128,-27,-114
,4514,2015/08/20 07:43:46.14,-944,2120,-16136,109,13,27,85,123,-38,-104
,4515,2015/08/20 07:43:46.15,-1136,2184,-16184,82,52,0,100,132,-32,-116
,4516,2015/08/20 07:43:46.16,-1184,2104,-16232,100,45,-14,99,140,-41,-119
,4517,2015/08/20 07:43:46.17,-1064,2160,-16032,123,44,-15,113,144,-31,-128
,4518,2015/08/20 07:43:46.18,-1056,2056,-16120,130,48,-6,105,146,-41,-125
,4519,2015/08/20 07:43:46.19,-1096,1936,-16176,103,73,-29,116,150,-34,-133
,4520,2015/08/20 07:43:46.20,-1144,2200,-16272,97,94,-50,110,153,-43,-131
,4521,2015/08/20 07:43:46.21,-1152,2320,-16224,59,102,-60,123,161,-38,-142
,4522,2015/08/20 07:43:46.22,-1136,2032,-16384,25,112,-67,115,164,-49,-139
,4523,2015/08/20 07:43:46.23,-1032,2136,-16224,-2,132,-91,126,167,-41,-146
,4524,2015/08/20 07:43:46.24,-1176,2128,-16224,-2,111,-93,116,168,-52,-142
,4525,2015/08/20 07:43:46.25,-992,2080,-16288,-10,98,-93,128,172,-44,-150
,4526,2015/08/20 07:43:46.26,-1000,2136,-16160,-14,102,-113,119,171,-52,-145
,4527,2015/08/20 07:43:46.27,-1128,2272,-16344,-24,69,-126,129,170,-41,-149
,4528,2015/08/20 07:43:46.28,-1040,2208,-16392,-30,78,-120,118,166,-48,-142
,4529,2015/08/20 07:43:46.29,-976,2008,-16208,-22,68,-114,127,165,-38,-146
,4530,2015/08/20 07:43:46.30,-1312,2152,-16248,7,50,-129,117,165,-48,-141
,4531,2015/08/20 07:43:46.31,-1008,2152,-16152,12,42,-104,128,170,-42,-149
,4532,2015/08/20 07:43:46.32,-912,2168,-16208,29,53,-103,119,172,-53,-145
,4533,2015/08/20 07:43:46.33,-1184,2048,-16048,57,66,-84,130,174,-44,-152
,4534,2015/08/20 07:43:46.34,-1192,2280,-16288,65,78,-71,128,186,-58,-157
,4535,2015/08/20 07:43:46.35,-936,2048,-16296,100,81,-41,131,175,-44,-153
,4536,2015/08/20 07:43:46.36,-1056,2080,-16232,92,83,-50,122,175,-53,-148
,4537,2015/08/20 07:43:46.37,-1032,2184,-16312,98,78,-19,137,173,-36,-155
,4538,2015/08/20 07:43:46.38,-1184,2168,-16224,93,87,-24,121,170,-49,-145
,4539,2015/08/20 07:43:46.39,-1240,2000,-16216,93,115,0,132,172,-40,-152
,4540,2015/08/20 07:43:46.40,-1080,2096,-16120,74,83,5,124,172,-48,-148
,4541,2015/08/20 07:43:46.41,-1176,2152,-16312,78,85,15,135,169,-34,-152
,4542,2015/08/20 07:43:46.42,-1024,2152,-16160,77,97,-3,123,169,-46,-146
,4543,2015/08/20 07:43:46.43,-1224,2064,-16208,68,84,-15,122,159,-37,-140
,4544,2015/08/20 07:43:46.44,-1032,2168,-16256,95,93,-21,122,170,-48,-146
,4545,2015/08/20 07:43:46.45,-1072,2064,-16160,85,60,-36,133,172,-39,-152
,4546,2015/08/20 07:43:46.46,-984,2104,-16216,76,68,-47,130,180,-50,-155
,4547,2015/08/20 07:43:46.47,-992,2176,-16288,54,60,-48,154,191,-37,-172
,4548,2015/08/20 07:43:46.48,-1288,2192,-16304,50,68,-52,162,206,-44,-184
,4549,2015/08/20 07:43:46.49,-1104,2088,-16168,38,63,-54,178,210,-32,-194
,4550,2015/08/20 07:43:46.50,-1208,2144,-16112,27,52,-52,161,202,-41,-181
,4551,2015/08/20 07:43:46.51,-1152,2160,-16080,11,61,-44,164,201,-37,-182
,4552,2015/08/20 07:43:46.52,-1096,2152,-16200,13,56,-59,152,203,-51,-177
,4553,2015/08/20 07:43:46.53,-1192,1960,-16200,33,39,-82,162,203,-41,-182
,4554,2015/08/20 07:43:46.54,-1256,2064,-16248,21,49,-54,149,199,-50,-174
,4555,2015/08/20 07:43:46.55,-1040,2160,-16072,22,25,-41,156,194,-38,-175
,4556,2015/08/20 07:43:46.56,-1144,2080,-16296,37,41,-34,144,189,-45,-166
,4557,2015/08/20 07:43:46.57,-1184,1936,-16312,29,36,-24,152,188,-36,-170
,4558,2015/08/20 07:43:46.58,-976,2128,-16152,46,13,-41,144,189,-45,-166
,4559,2015/08/20 07:43:46.59,-816,2208,-16224,34,18,-21,152,188,-36,-170
,4560,2015/08/20 07:43:46.60,-1000,2032,-16240,27,2,-11,140,189,-49,-164
,4561,2015/08/20 07:43:46.61,-976,2168,-16240,15,10,20,146,188,-42,-167
,4562,2015/08/20 07:43:46.62,-1200,2080,-16296,-11,34,17,133,183,-50,-158
,4563,2015/08/20 07:43:46.63,-1032,2104,-16232,-1,53,22,141,180,-39,-160
,4564,2015/08/20 07:43:46.64,-1304,2064,-16328,8,62,15,132,179,-47,-155
,4565,2015/08/20 07:43:46.65,-840,2160,-16136,35,68,11,142,178,-36,-160
,4566,2015/08/20 07:43:46.66,-1208,2232,-16184,53,114,-11,128,172,-44,-150
,4567,2015/08/20 07:43:46.67,-1200,2016,-16224,65,135,-43,131,169,-38,-150
,4568,2015/08/20 07:43:46.68,-1120,2200,-16160,37,146,-34,120,164,-44,-142
,4569,2015/08/20 07:43:46.69,-904,2080,-16272,33,107,-45,129,163,-34,-146
,4570,2015/08/20 07:43:46.70,-1048,2248,-16136,19,104,-51,125,165,-40,-145
,4571,2015/08/20 07:43:46.71,-992,2120,-16184,-10,124,-64,138,170,-32,-154
,4572,2015/08/20 07:43:46.72,-1032,2248,-16208,-39,115,-73,130,172,-42,-151
,4573,2015/08/20 07:43:46.73,-1136,2160,-16064,-66,146,-92,138,174,-36,-156
,4574,2015/08/20 07:43:46.74,-1200,2192,-16336,-59,166,-80,129,172,-43,-150
,4575,2015/08/20 07:43:46.75,-888,2280,-16272,-67,140,-80,141,178,-37,-159
,4576,2015/08/20 07:43:46.76,-1120,2064,-16208,-58,104,-69,124,168,-44,-146
,4577,2015/08/20 07:43:46.77,-1112,2232,-16176,-33,84,-68,131,169,-38,-150
,4578,2015/08/20 07:43:46.78,-944,2312,-16304,-16,44,-55,122,162,-40,-142
,4579,2015/08/20 07:43:46.79,-944,2144,-16320,18,12,-55,132,170,-38,-151
,4580,2015/08/20 07:43:46.80,-1176,2208,-16240,62,-1,-92,126,173,-47,-149
,4581,2015/08/20 07:43:46.81,-872,2392,-16352,63,-20,-86,134,176,-42,-155
,4582,2015/08/20 07:43:46.82,-1128,2152,-16192,112,-21,-80,128,176,-48,-152
,4583,2015/08/20 07:43:46.83,-1312,2128,-16328,125,-41,-74,139,177,-38,-158
,4584,2015/08/20 07:43:46.84,-1000,2144,-16192,137,-52,-51,125,168,-43,-146
,4585,2015/08/20 07:43:46.85,-1048,2128,-16192,117,-60,-22,140,176,-36,-158
,4586,2015/08/20 07:43:46.86,-1160,2112,-16264,126,-57,10,132,176,-44,-154
,4587,2015/08/20 07:43:46.87,-1080,2112,-16224,141,-50,36,144,180,-36,-162
,4588,2015/08/20 07:43:46.88,-1040,2224,-16152,153,-38,53,136,179,-43,-157
,4589,2015/08/20 07:43:46.89,-1168,2272,-16136,151,-4,65,141,180,-39,-160
